pos,corr_resp,thisN,thisTrialN,thisRepN,key_resp.keys,key_resp.corr,key_resp.rt,key_resp.duration,trials.thisRepN,trials.thisTrialN,trials.thisN,trials.thisIndex,trials_2.thisRepN,trials_2.thisTrialN,trials_2.thisN,trials_2.thisIndex,thisRow.t,notes,trial.started,fixation.started,line1.started,line2.started,line3.started,line4.started,fixation.stopped,probe.started,key_resp.started,trial.stopped,trials.key_resp.keys,trials.key_resp.corr,trials.key_resp.rt,trials.key_resp.duration,trials_2.key_resp.keys,trials_2.key_resp.corr,trials_2.key_resp.rt,trials_2.key_resp.duration,participant,session,date,expName,psychopyVersion,frameRate,expStart,
-50,x,0,0,0,x,1,0.753826699918136,None,0,0,0,0,,,,,0.04025430011097342,,0.018702000030316412,0.04025430011097342,1.0070449000922963,1.0070449000922963,1.0070449000922963,1.0070449000922963,1.0406559000257403,2.007741600042209,2.007741600042209,2.8712888000300154,x,1,0.753826699918136,None,,,,,1,001,2024-10-17_14h37.53.176,Motor Learning Sequence Task,2024.2.1post4,61.11938940687298,2024-10-17 14h40.35.793676 +0530,
150,v,1,1,0,v,1,0.6390358000062406,None,0,1,1,1,,,,,2.875642400002107,,2.8717563000973314,2.875642400002107,3.8739802000345662,3.8739802000345662,3.8739802000345662,3.8739802000345662,3.8911228000652045,4.873900500009768,4.873900500009768,5.527820800081827,v,1,0.6390358000062406,None,,,,,1,001,2024-10-17_14h37.53.176,Motor Learning Sequence Task,2024.2.1post4,61.11938940687298,2024-10-17 14h40.35.793676 +0530,
50,c,2,2,0,c,1,0.8434782000258565,None,0,2,2,2,,,,,5.540438500000164,,5.52816270000767,5.540438500000164,6.540540400077589,6.540540400077589,6.540540400077589,6.540540400077589,6.540540400077589,7.540392900002189,7.540392900002189,8.384960400057025,c,1,0.8434782000258565,None,,,,,1,001,2024-10-17_14h37.53.176,Motor Learning Sequence Task,2024.2.1post4,61.11938940687298,2024-10-17 14h40.35.793676 +0530,
-150,z,3,3,0,z,1,0.7243395999539644,None,0,3,3,3,,,,,8.39055280003231,,8.385354800033383,8.39055280003231,9.390600300044753,9.390600300044753,9.390600300044753,9.390600300044753,9.390600300044753,10.390630100038834,10.390630100038834,11.128420400083996,z,1,0.7243395999539644,None,,,,,1,001,2024-10-17_14h37.53.176,Motor Learning Sequence Task,2024.2.1post4,61.11938940687298,2024-10-17 14h40.35.793676 +0530,
-50,x,4,0,1,x,1,0.664758599945344,None,1,0,4,0,,,,,11.140207900083624,,11.128823000006378,11.140207900083624,12.140914800111204,12.140914800111204,12.140914800111204,12.140914800111204,12.140914800111204,13.140853500110097,13.140853500110097,13.811299300054088,x,1,0.664758599945344,None,,,,,1,001,2024-10-17_14h37.53.176,Motor Learning Sequence Task,2024.2.1post4,61.11938940687298,2024-10-17 14h40.35.793676 +0530,
150,v,5,1,1,v,1,1.0354870000155643,None,1,1,5,1,,,,,13.824200300034136,,13.811717400094494,13.824200300034136,14.824053200078197,14.824053200078197,14.824053200078197,14.824053200078197,14.824053200078197,15.823358800029382,15.823358800029382,16.861318800016306,v,1,1.0354870000155643,None,,,,,1,001,2024-10-17_14h37.53.176,Motor Learning Sequence Task,2024.2.1post4,61.11938940687298,2024-10-17 14h40.35.793676 +0530,
50,c,6,2,1,c,1,0.7668519000289962,None,1,2,6,2,,,,,16.874464600114152,,16.861692600068636,16.874464600114152,17.873951000045054,17.873951000045054,17.873951000045054,17.873951000045054,17.873951000045054,18.8739783000201,18.8739783000201,19.644810700090602,c,1,0.7668519000289962,None,,,,,1,001,2024-10-17_14h37.53.176,Motor Learning Sequence Task,2024.2.1post4,61.11938940687298,2024-10-17 14h40.35.793676 +0530,
-150,z,7,3,1,z,1,0.6149528999812901,None,1,3,7,3,,,,,19.657356100040488,,19.64515300001949,19.657356100040488,20.65755620005075,20.65755620005075,20.65755620005075,20.65755620005075,20.65755620005075,21.65716300008353,21.65716300008353,22.278233000077307,z,1,0.6149528999812901,None,,,,,1,001,2024-10-17_14h37.53.176,Motor Learning Sequence Task,2024.2.1post4,61.11938940687298,2024-10-17 14h40.35.793676 +0530,
-50,x,8,0,2,x,1,0.8333825999870896,None,2,0,8,0,,,,,22.29019330011215,,22.278637300012633,22.29019330011215,23.290899300016463,23.290899300016463,23.290899300016463,23.290899300016463,23.290899300016463,24.290367900044657,24.290367900044657,25.127500500064343,x,1,0.8333825999870896,None,,,,,1,001,2024-10-17_14h37.53.176,Motor Learning Sequence Task,2024.2.1post4,61.11938940687298,2024-10-17 14h40.35.793676 +0530,
150,v,9,1,2,v,1,0.6137761999852955,None,2,1,9,1,,,,,25.14004730002489,,25.127845800016075,25.14004730002489,26.140799300046638,26.140799300046638,26.140799300046638,26.140799300046638,26.140799300046638,27.140750500024296,27.140750500024296,27.760650800075382,v,1,0.6137761999852955,None,,,,,1,001,2024-10-17_14h37.53.176,Motor Learning Sequence Task,2024.2.1post4,61.11938940687298,2024-10-17 14h40.35.793676 +0530,
50,c,10,2,2,c,1,0.876642300048843,None,2,2,10,2,,,,,27.77393420005683,,27.760985300061293,27.77393420005683,28.77381820010487,28.77381820010487,28.77381820010487,28.77381820010487,28.77381820010487,29.773724600090645,29.773724600090645,30.660098500084132,c,1,0.876642300048843,None,,,,,1,001,2024-10-17_14h37.53.176,Motor Learning Sequence Task,2024.2.1post4,61.11938940687298,2024-10-17 14h40.35.793676 +0530,
-150,z,11,3,2,z,1,0.6120166000910103,None,2,3,11,3,,,,,30.673685900052078,,30.660433100070804,30.673685900052078,31.674193800077774,31.674193800077774,31.674193800077774,31.674193800077774,31.674193800077774,32.67359890008811,32.67359890008811,33.29480300005525,z,1,0.6120166000910103,None,,,,,1,001,2024-10-17_14h37.53.176,Motor Learning Sequence Task,2024.2.1post4,61.11938940687298,2024-10-17 14h40.35.793676 +0530,
-50,x,12,0,3,x,1,0.6661244999850169,None,3,0,12,0,,,,,33.30735410004854,,33.29525220009964,33.30735410004854,34.30743510008324,34.30743510008324,34.30743510008324,34.30743510008324,34.30743510008324,35.306737900013104,35.306737900013104,35.97735590010416,x,1,0.6661244999850169,None,,,,,1,001,2024-10-17_14h37.53.176,Motor Learning Sequence Task,2024.2.1post4,61.11938940687298,2024-10-17 14h40.35.793676 +0530,
150,v,13,1,3,v,1,0.5304181999526918,None,3,1,13,1,,,,,35.99061120010447,,35.97776150004938,35.99061120010447,36.99052870005835,36.99052870005835,36.99052870005835,36.99052870005835,36.99052870005835,37.990483300061896,37.990483300061896,38.52735180000309,v,1,0.5304181999526918,None,,,,,1,001,2024-10-17_14h37.53.176,Motor Learning Sequence Task,2024.2.1post4,61.11938940687298,2024-10-17 14h40.35.793676 +0530,
50,c,14,2,3,c,1,0.7190959000727162,None,3,2,14,2,,,,,38.54030330001842,,38.52768180007115,38.54030330001842,39.54057740001008,39.54057740001008,39.54057740001008,39.54057740001008,39.54057740001008,40.54040120006539,40.54040120006539,41.26061350002419,c,1,0.7190959000727162,None,,,,,1,001,2024-10-17_14h37.53.176,Motor Learning Sequence Task,2024.2.1post4,61.11938940687298,2024-10-17 14h40.35.793676 +0530,
-150,z,15,3,3,z,1,0.7875516000203788,None,3,3,15,3,,,,,41.27429310011212,,41.26096940005664,41.27429310011212,42.272950700018555,42.272950700018555,42.272950700018555,42.272950700018555,42.272950700018555,43.27380320010707,43.27380320010707,44.07785850006621,z,1,0.7875516000203788,None,,,,,1,001,2024-10-17_14h37.53.176,Motor Learning Sequence Task,2024.2.1post4,61.11938940687298,2024-10-17 14h40.35.793676 +0530,
-50,x,16,0,4,x,1,0.7746951000299305,None,4,0,16,0,,,,,44.089928100002,,44.078206500038505,44.089928100002,45.09003450011369,45.09003450011369,45.09003450011369,45.09003450011369,45.09003450011369,46.090207100030966,46.090207100030966,46.87701820000075,x,1,0.7746951000299305,None,,,,,1,001,2024-10-17_14h37.53.176,Motor Learning Sequence Task,2024.2.1post4,61.11938940687298,2024-10-17 14h40.35.793676 +0530,
150,v,17,1,4,v,1,0.6874941000714898,None,4,1,17,1,,,,,46.89015690004453,,46.877462700009346,46.89015690004453,47.88963240000885,47.88963240000885,47.88963240000885,47.88963240000885,47.88963240000885,48.889853800064884,48.889853800064884,49.59332630003337,v,1,0.6874941000714898,None,,,,,1,001,2024-10-17_14h37.53.176,Motor Learning Sequence Task,2024.2.1post4,61.11938940687298,2024-10-17 14h40.35.793676 +0530,
50,c,18,2,4,c,1,1.3862344999797642,None,4,2,18,2,,,,,49.60623120004311,,49.59372670005541,49.60623120004311,50.606481500086375,50.606481500086375,50.606481500086375,50.606481500086375,50.606481500086375,51.60584460000973,51.60584460000973,52.99420040007681,c,1,1.3862344999797642,None,,,,,1,001,2024-10-17_14h37.53.176,Motor Learning Sequence Task,2024.2.1post4,61.11938940687298,2024-10-17 14h40.35.793676 +0530,
-150,z,19,3,4,z,1,0.7696098999585956,None,4,3,19,3,,,,,53.00603130005766,,52.99460870004259,53.00603130005766,54.00583720009308,54.00583720009308,54.00583720009308,54.00583720009308,54.00583720009308,55.00588750001043,55.00588750001043,55.776906500104815,z,1,0.7696098999585956,None,,,,,1,001,2024-10-17_14h37.53.176,Motor Learning Sequence Task,2024.2.1post4,61.11938940687298,2024-10-17 14h40.35.793676 +0530,
-50,x,20,0,5,x,1,0.77584450005088,None,5,0,20,0,,,,,55.7897034001071,,55.77732100000139,55.7897034001071,56.78944040008355,56.78944040008355,56.78944040008355,56.78944040008355,56.78944040008355,57.78973820002284,57.78973820002284,58.57654190005269,x,1,0.77584450005088,None,,,,,1,001,2024-10-17_14h37.53.176,Motor Learning Sequence Task,2024.2.1post4,61.11938940687298,2024-10-17 14h40.35.793676 +0530,
150,v,21,1,5,v,1,0.6166199999861419,None,5,1,21,1,,,,,58.58904230000917,,58.57687230000738,58.58904230000917,59.58980850002263,59.58980850002263,59.58980850002263,59.58980850002263,59.58980850002263,60.58952410006896,60.58952410006896,61.210275200079195,v,1,0.6166199999861419,None,,,,,1,001,2024-10-17_14h37.53.176,Motor Learning Sequence Task,2024.2.1post4,61.11938940687298,2024-10-17 14h40.35.793676 +0530,
50,c,22,2,5,c,1,0.7535653999075294,None,5,2,22,2,,,,,61.222702100058086,,61.210679000010714,61.222702100058086,62.223095900029875,62.223095900029875,62.223095900029875,62.223095900029875,62.223095900029875,63.223161600064486,63.223161600064486,63.99316020007245,c,1,0.7535653999075294,None,,,,,1,001,2024-10-17_14h37.53.176,Motor Learning Sequence Task,2024.2.1post4,61.11938940687298,2024-10-17 14h40.35.793676 +0530,
-150,z,23,3,5,z,1,0.7325761000392959,None,5,3,23,3,,,,,64.00629130005836,,63.9935624001082,64.00629130005836,65.00595210003667,65.00595210003667,65.00595210003667,65.00595210003667,65.00595210003667,66.0060180000728,66.0060180000728,66.74400180007797,z,1,0.7325761000392959,None,,,,,1,001,2024-10-17_14h37.53.176,Motor Learning Sequence Task,2024.2.1post4,61.11938940687298,2024-10-17 14h40.35.793676 +0530,
-50,x,24,0,6,x,1,0.6228582999901846,None,6,0,24,0,,,,,66.75569830008317,,66.74440540000796,66.75569830008317,67.75645510002505,67.75645510002505,67.75645510002505,67.75645510002505,67.75645510002505,68.75566290004645,68.75566290004645,69.39355910010636,x,1,0.6228582999901846,None,,,,,1,001,2024-10-17_14h37.53.176,Motor Learning Sequence Task,2024.2.1post4,61.11938940687298,2024-10-17 14h40.35.793676 +0530,
150,v,25,1,6,v,1,0.5108022999484092,None,6,1,25,1,,,,,69.40639060002286,,69.39396250003483,69.40639060002286,70.40572060004342,70.40572060004342,70.40572060004342,70.40572060004342,70.40572060004342,71.40594090009108,71.40594090009108,71.92616310005542,v,1,0.5108022999484092,None,,,,,1,001,2024-10-17_14h37.53.176,Motor Learning Sequence Task,2024.2.1post4,61.11938940687298,2024-10-17 14h40.35.793676 +0530,
50,c,26,2,6,c,1,0.6401617999654263,None,6,2,26,2,,,,,71.93932380003389,,71.92659380007535,71.93932380003389,72.9398394000018,72.9398394000018,72.9398394000018,72.9398394000018,72.9398394000018,73.939126900048,73.939126900048,74.59347350010648,c,1,0.6401617999654263,None,,,,,1,001,2024-10-17_14h37.53.176,Motor Learning Sequence Task,2024.2.1post4,61.11938940687298,2024-10-17 14h40.35.793676 +0530,
-150,z,27,3,6,z,1,0.5857032999629155,None,6,3,27,3,,,,,74.60630680003669,,74.59387250000145,74.60630680003669,75.60639400000218,75.60639400000218,75.60639400000218,75.60639400000218,75.60639400000218,76.60571770009119,76.60571770009119,77.19317790004425,z,1,0.5857032999629155,None,,,,,1,001,2024-10-17_14h37.53.176,Motor Learning Sequence Task,2024.2.1post4,61.11938940687298,2024-10-17 14h40.35.793676 +0530,
-50,x,28,0,7,x,1,0.6042372999945655,None,7,0,28,0,,,,,77.20616870000958,,77.19362080004066,77.20616870000958,78.20560980006121,78.20560980006121,78.20560980006121,78.20560980006121,78.20560980006121,79.20594780007377,79.20594780007377,79.82699340011459,x,1,0.6042372999945655,None,,,,,1,001,2024-10-17_14h37.53.176,Motor Learning Sequence Task,2024.2.1post4,61.11938940687298,2024-10-17 14h40.35.793676 +0530,
150,v,29,1,7,v,1,0.5269114000257105,None,7,1,29,1,,,,,79.83895670005586,,79.82734000007622,79.83895670005586,80.83935430005658,80.83935430005658,80.83935430005658,80.83935430005658,80.83935430005658,81.83922830002848,81.83922830002848,82.3761340000201,v,1,0.5269114000257105,None,,,,,1,001,2024-10-17_14h37.53.176,Motor Learning Sequence Task,2024.2.1post4,61.11938940687298,2024-10-17 14h40.35.793676 +0530,
50,c,30,2,7,c,1,0.6427767999703065,None,7,2,30,2,,,,,82.38919540005736,,82.3765301000094,82.38919540005736,83.3896848000586,83.3896848000586,83.3896848000586,83.3896848000586,83.3896848000586,84.38905540003907,84.38905540003907,85.0429478000151,c,1,0.6427767999703065,None,,,,,1,001,2024-10-17_14h37.53.176,Motor Learning Sequence Task,2024.2.1post4,61.11938940687298,2024-10-17 14h40.35.793676 +0530,
-150,z,31,3,7,z,1,0.4377653000410646,None,7,3,31,3,,,,,85.05540980002843,,85.04334060009569,85.05540980002843,86.05600500002038,86.05600500002038,86.05600500002038,86.05600500002038,86.05600500002038,87.05595250008628,87.05595250008628,87.51021950005088,z,1,0.4377653000410646,None,,,,,1,001,2024-10-17_14h37.53.176,Motor Learning Sequence Task,2024.2.1post4,61.11938940687298,2024-10-17 14h40.35.793676 +0530,
-50,x,32,0,8,x,1,0.5634190000128001,None,8,0,32,0,,,,,87.52273530000821,,87.51054980000481,87.52273530000821,88.52257670008112,88.52257670008112,88.52257670008112,88.52257670008112,88.52257670008112,89.52268010005355,89.52268010005355,90.0930851000594,x,1,0.5634190000128001,None,,,,,1,001,2024-10-17_14h37.53.176,Motor Learning Sequence Task,2024.2.1post4,61.11938940687298,2024-10-17 14h40.35.793676 +0530,
150,v,33,1,8,v,1,0.4672351999906823,None,8,1,33,1,,,,,90.10579610010609,,90.09341359999962,90.10579610010609,91.10555220011156,91.10555220011156,91.10555220011156,91.10555220011156,91.10555220011156,92.10571140004322,92.10571140004322,92.57647000008728,v,1,0.4672351999906823,None,,,,,1,001,2024-10-17_14h37.53.176,Motor Learning Sequence Task,2024.2.1post4,61.11938940687298,2024-10-17 14h40.35.793676 +0530,
50,c,34,2,8,c,1,0.7167276999680325,None,8,2,34,2,,,,,92.58881370001473,,92.57689960009884,92.58881370001473,93.5887918000808,93.5887918000808,93.5887918000808,93.5887918000808,93.5887918000808,94.58855280000716,94.58855280000716,95.30948660010472,c,1,0.7167276999680325,None,,,,,1,001,2024-10-17_14h37.53.176,Motor Learning Sequence Task,2024.2.1post4,61.11938940687298,2024-10-17 14h40.35.793676 +0530,
-150,z,35,3,8,z,1,0.6742213000543416,None,8,3,35,3,,,,,95.32204550004099,,95.30981940007769,95.32204550004099,96.32210240000859,96.32210240000859,96.32210240000859,96.32210240000859,96.32210240000859,97.32248130009975,97.32248130009975,98.00936470006127,z,1,0.6742213000543416,None,,,,,1,001,2024-10-17_14h37.53.176,Motor Learning Sequence Task,2024.2.1post4,61.11938940687298,2024-10-17 14h40.35.793676 +0530,
-50,x,36,0,9,x,1,0.6225944999605417,None,9,0,36,0,,,,,98.02223670005333,,98.00976580008864,98.02223670005333,99.02263320004568,99.02263320004568,99.02263320004568,99.02263320004568,99.02263320004568,100.02234640007373,100.02234640007373,100.65958790003788,x,1,0.6225944999605417,None,,,,,1,001,2024-10-17_14h37.53.176,Motor Learning Sequence Task,2024.2.1post4,61.11938940687298,2024-10-17 14h40.35.793676 +0530,
150,v,37,1,9,v,1,0.40127229993231595,None,9,1,37,1,,,,,100.6718455000082,,100.66000350005925,100.6718455000082,101.67194780008867,101.67194780008867,101.67194780008867,101.67194780008867,101.67194780008867,102.67367010004818,102.67367010004818,103.07776320003904,v,1,0.40127229993231595,None,,,,,1,001,2024-10-17_14h37.53.176,Motor Learning Sequence Task,2024.2.1post4,61.11938940687298,2024-10-17 14h40.35.793676 +0530,
50,c,38,2,9,c,1,0.6506706000072882,None,9,2,38,2,,,,,103.08941890008282,,103.07811430003494,103.08941890008282,104.08940810000058,104.08940810000058,104.08940810000058,104.08940810000058,104.08940810000058,105.08884090010542,105.08884090010542,105.74247810000088,c,1,0.6506706000072882,None,,,,,1,001,2024-10-17_14h37.53.176,Motor Learning Sequence Task,2024.2.1post4,61.11938940687298,2024-10-17 14h40.35.793676 +0530,
-150,z,39,3,9,z,1,0.488756800070405,None,9,3,39,3,,,,,105.7552972000558,,105.74281240010168,105.7552972000558,106.75572910008486,106.75572910008486,106.75572910008486,106.75572910008486,106.75572910008486,107.7551963001024,107.7551963001024,108.2595884000184,z,1,0.488756800070405,None,,,,,1,001,2024-10-17_14h37.53.176,Motor Learning Sequence Task,2024.2.1post4,61.11938940687298,2024-10-17 14h40.35.793676 +0530,
-50,x,40,0,10,x,1,0.6123339999467134,None,10,0,40,0,,,,,108.27214330004063,,108.25998980004806,108.27214330004063,109.27215210010763,109.27215210010763,109.27215210010763,109.27215210010763,109.27215210010763,110.2720968000358,110.2720968000358,110.89247330010403,x,1,0.6123339999467134,None,,,,,1,001,2024-10-17_14h37.53.176,Motor Learning Sequence Task,2024.2.1post4,61.11938940687298,2024-10-17 14h40.35.793676 +0530,
150,v,41,1,10,v,1,0.891161400009878,None,10,1,41,1,,,,,110.90583700011484,,110.89287230011541,110.90583700011484,111.90529520006385,111.90529520006385,111.90529520006385,111.90529520006385,111.90529520006385,112.90591760003008,112.90591760003008,113.80939420009963,v,1,0.891161400009878,None,,,,,1,001,2024-10-17_14h37.53.176,Motor Learning Sequence Task,2024.2.1post4,61.11938940687298,2024-10-17 14h40.35.793676 +0530,
50,c,42,2,10,c,1,0.7730351999634877,None,10,2,42,2,,,,,113.82193490001373,,113.80979360011406,113.82193490001373,114.82224020001013,114.82224020001013,114.82224020001013,114.82224020001013,114.82224020001013,115.82163170003332,115.82163170003332,116.60941320005804,c,1,0.7730351999634877,None,,,,,1,001,2024-10-17_14h37.53.176,Motor Learning Sequence Task,2024.2.1post4,61.11938940687298,2024-10-17 14h40.35.793676 +0530,
-150,z,43,3,10,z,1,0.8619937000330538,None,10,3,43,3,,,,,116.62174810003489,,116.60983530001249,116.62174810003489,117.6223455000436,117.6223455000436,117.6223455000436,117.6223455000436,117.6223455000436,118.62236700009089,118.62236700009089,119.49241630011238,z,1,0.8619937000330538,None,,,,,1,001,2024-10-17_14h37.53.176,Motor Learning Sequence Task,2024.2.1post4,61.11938940687298,2024-10-17 14h40.35.793676 +0530,
-50,x,44,0,11,x,1,0.6018962999805808,None,11,0,44,0,,,,,119.50539140007459,,119.49282040004618,119.50539140007459,120.5055357000092,120.5055357000092,120.5055357000092,120.5055357000092,120.5055357000092,121.50519560009707,121.50519560009707,122.1092793000862,x,1,0.6018962999805808,None,,,,,1,001,2024-10-17_14h37.53.176,Motor Learning Sequence Task,2024.2.1post4,61.11938940687298,2024-10-17 14h40.35.793676 +0530,
150,v,45,1,11,v,1,0.48067690001334995,None,11,1,45,1,,,,,122.12211950006895,,122.10961350006983,122.12211950006895,123.12156240001787,123.12156240001787,123.12156240001787,123.12156240001787,123.12156240001787,124.12190110003576,124.12190110003576,124.60939010011498,v,1,0.48067690001334995,None,,,,,1,001,2024-10-17_14h37.53.176,Motor Learning Sequence Task,2024.2.1post4,61.11938940687298,2024-10-17 14h40.35.793676 +0530,
50,c,46,2,11,c,1,0.7149480999214575,None,11,2,46,2,,,,,124.62168140010908,,124.60980820003897,124.62168140010908,125.6221204000758,125.6221204000758,125.6221204000758,125.6221204000758,125.6221204000758,126.62235750001855,126.62235750001855,127.34277790004853,c,1,0.7149480999214575,None,,,,,1,001,2024-10-17_14h37.53.176,Motor Learning Sequence Task,2024.2.1post4,61.11938940687298,2024-10-17 14h40.35.793676 +0530,
-150,z,47,3,11,z,1,0.7482925000367686,None,11,3,47,3,,,,,127.35484020004515,,127.34328310005367,127.35484020004515,128.35568190005142,128.35568190005142,128.35568190005142,128.35568190005142,128.35568190005142,129.35529220011085,129.35529220011085,130.1089784000069,z,1,0.7482925000367686,None,,,,,1,001,2024-10-17_14h37.53.176,Motor Learning Sequence Task,2024.2.1post4,61.11938940687298,2024-10-17 14h40.35.793676 +0530,
-50,x,48,0,12,x,1,0.7741949000628665,None,12,0,48,0,,,,,130.12176680006087,,130.10939270001836,130.12176680006087,131.1221439000219,131.1221439000219,131.1221439000219,131.1221439000219,131.1221439000219,132.12149750010576,132.12149750010576,132.90928450005595,x,1,0.7741949000628665,None,,,,,1,001,2024-10-17_14h37.53.176,Motor Learning Sequence Task,2024.2.1post4,61.11938940687298,2024-10-17 14h40.35.793676 +0530,
150,v,49,1,12,v,1,0.3838467999594286,None,12,1,49,1,,,,,132.921794300084,,132.90968060004525,132.921794300084,133.92170490010176,133.92170490010176,133.92170490010176,133.92170490010176,133.92170490010176,134.92201670003124,134.92201670003124,135.30913790001068,v,1,0.3838467999594286,None,,,,,1,001,2024-10-17_14h37.53.176,Motor Learning Sequence Task,2024.2.1post4,61.11938940687298,2024-10-17 14h40.35.793676 +0530,
50,c,50,2,12,c,1,0.8302894999505952,None,12,2,50,2,,,,,135.3220294000348,,135.30953950004186,135.3220294000348,136.32161330000963,136.32161330000963,136.32161330000963,136.32161330000963,136.32161330000963,137.32187450001948,137.32187450001948,138.15882310003508,c,1,0.8302894999505952,None,,,,,1,001,2024-10-17_14h37.53.176,Motor Learning Sequence Task,2024.2.1post4,61.11938940687298,2024-10-17 14h40.35.793676 +0530,
-150,z,51,3,12,z,1,0.523921399959363,None,12,3,51,3,,,,,138.17155590001494,,138.15921910002362,138.17155590001494,139.17162790009752,139.17162790009752,139.17162790009752,139.17162790009752,139.17162790009752,140.1720771000255,140.1720771000255,140.7088907000143,z,1,0.523921399959363,None,,,,,1,001,2024-10-17_14h37.53.176,Motor Learning Sequence Task,2024.2.1post4,61.11938940687298,2024-10-17 14h40.35.793676 +0530,
-50,x,52,0,13,x,1,0.7654339000582695,None,13,0,52,0,,,,,140.72165210009553,,140.70929140003864,140.72165210009553,141.72181760007516,141.72181760007516,141.72181760007516,141.72181760007516,141.72181760007516,142.72223540011328,142.72223540011328,143.49271890008822,x,1,0.7654339000582695,None,,,,,1,001,2024-10-17_14h37.53.176,Motor Learning Sequence Task,2024.2.1post4,61.11938940687298,2024-10-17 14h40.35.793676 +0530,
150,v,53,1,13,v,1,0.38597229996230453,None,13,1,53,1,,,,,143.50509420002345,,143.49312450003345,143.50509420002345,144.5049818000989,144.5049818000989,144.5049818000989,144.5049818000989,144.5049818000989,145.50489880004898,145.50489880004898,145.89286160003394,v,1,0.38597229996230453,None,,,,,1,001,2024-10-17_14h37.53.176,Motor Learning Sequence Task,2024.2.1post4,61.11938940687298,2024-10-17 14h40.35.793676 +0530,
50,c,54,2,13,c,1,0.729733599931933,None,13,2,54,2,,,,,145.9054185000714,,145.89319170010276,145.9054185000714,146.90489960007835,146.90489960007835,146.90489960007835,146.90489960007835,146.90489960007835,147.90557360008825,147.90557360008825,148.64261150010861,c,1,0.729733599931933,None,,,,,1,001,2024-10-17_14h37.53.176,Motor Learning Sequence Task,2024.2.1post4,61.11938940687298,2024-10-17 14h40.35.793676 +0530,
-150,z,55,3,13,z,1,0.5569678000174463,None,13,3,55,3,,,,,148.65467660001013,,148.64309760008473,148.65467660001013,149.65486780006904,149.65486780006904,149.65486780006904,149.65486780006904,149.65486780006904,150.65489490004256,150.65489490004256,151.22499900008552,z,1,0.5569678000174463,None,,,,,1,001,2024-10-17_14h37.53.176,Motor Learning Sequence Task,2024.2.1post4,61.11938940687298,2024-10-17 14h40.35.793676 +0530,
-50,x,56,0,14,x,1,0.5504314000718296,None,14,0,56,0,,,,,151.2386867000023,,151.22533220006153,151.2386867000023,152.23808140004985,152.23808140004985,152.23808140004985,152.23808140004985,152.23808140004985,153.23793180007488,153.23793180007488,153.79266670008656,x,1,0.5504314000718296,None,,,,,1,001,2024-10-17_14h37.53.176,Motor Learning Sequence Task,2024.2.1post4,61.11938940687298,2024-10-17 14h40.35.793676 +0530,
150,v,57,1,14,v,1,1.3091816999949515,None,14,1,57,1,,,,,153.80489590007346,,153.79299970006105,153.80489590007346,154.8051460001152,154.8051460001152,154.8051460001152,154.8051460001152,154.8051460001152,155.80493630003184,155.80493630003184,157.12505970010534,v,1,1.3091816999949515,None,,,,,1,001,2024-10-17_14h37.53.176,Motor Learning Sequence Task,2024.2.1post4,61.11938940687298,2024-10-17 14h40.35.793676 +0530,
50,c,58,2,14,c,1,0.5853914000326768,None,14,2,58,2,,,,,157.1384057000978,,157.1253873000387,157.1384057000978,158.13813980005216,158.13813980005216,158.13813980005216,158.13813980005216,158.13813980005216,159.13790030009113,159.13790030009113,159.72621110000182,c,1,0.5853914000326768,None,,,,,1,001,2024-10-17_14h37.53.176,Motor Learning Sequence Task,2024.2.1post4,61.11938940687298,2024-10-17 14h40.35.793676 +0530,
-150,z,59,3,14,z,1,0.4433869000058621,None,14,3,59,3,,,,,159.73801060009282,,159.72661330003757,159.73801060009282,160.73777070001233,160.73777070001233,160.73777070001233,160.73777070001233,160.73777070001233,161.73852050001733,161.73852050001733,162.19145890010986,z,1,0.4433869000058621,None,,,,,1,001,2024-10-17_14h37.53.176,Motor Learning Sequence Task,2024.2.1post4,61.11938940687298,2024-10-17 14h40.35.793676 +0530,
-50,x,60,0,15,x,1,0.5282783000729978,None,15,0,60,0,,,,,162.20498800009955,,162.19186050002463,162.20498800009955,163.2052502000006,163.2052502000006,163.2052502000006,163.2052502000006,163.2052502000006,164.2049922000151,164.2049922000151,164.7418095000321,x,1,0.5282783000729978,None,,,,,1,001,2024-10-17_14h37.53.176,Motor Learning Sequence Task,2024.2.1post4,61.11938940687298,2024-10-17 14h40.35.793676 +0530,
150,v,61,1,15,v,1,0.5239692000905052,None,15,1,61,1,,,,,164.7546548000537,,164.7422191000078,164.7546548000537,165.75492470001336,165.75492470001336,165.75492470001336,165.75492470001336,165.75492470001336,166.75450230005663,166.75450230005663,167.2916433000937,v,1,0.5239692000905052,None,,,,,1,001,2024-10-17_14h37.53.176,Motor Learning Sequence Task,2024.2.1post4,61.11938940687298,2024-10-17 14h40.35.793676 +0530,
50,c,62,2,15,c,1,0.620184600003995,None,15,2,62,2,,,,,167.30446560005657,,167.29197120002937,167.30446560005657,168.30516060010996,168.30516060010996,168.30516060010996,168.30516060010996,168.30516060010996,169.30481080000754,169.30481080000754,169.94148760009557,c,1,0.620184600003995,None,,,,,1,001,2024-10-17_14h37.53.176,Motor Learning Sequence Task,2024.2.1post4,61.11938940687298,2024-10-17 14h40.35.793676 +0530,
-150,z,63,3,15,z,1,0.9464471999090165,None,15,3,63,3,,,,,169.95489220006857,,169.94182830001228,169.95489220006857,170.95454170007724,170.95454170007724,170.95454170007724,170.95454170007724,170.95454170007724,171.95432280004025,171.95432280004025,172.90854600002058,z,1,0.9464471999090165,None,,,,,1,001,2024-10-17_14h37.53.176,Motor Learning Sequence Task,2024.2.1post4,61.11938940687298,2024-10-17 14h40.35.793676 +0530,
-50,x,64,0,16,x,1,0.6206355999456719,None,16,0,64,0,,,,,172.92134160001297,,172.90887800010387,172.92134160001297,173.92140780005138,173.92140780005138,173.92140780005138,173.92140780005138,173.92140780005138,174.92150110006332,174.92150110006332,175.55837220000103,x,1,0.6206355999456719,None,,,,,1,001,2024-10-17_14h37.53.176,Motor Learning Sequence Task,2024.2.1post4,61.11938940687298,2024-10-17 14h40.35.793676 +0530,
150,v,65,1,16,v,1,0.5295034000882879,None,16,1,65,1,,,,,175.57140500005335,,175.55870080005843,175.57140500005335,176.57178430003114,176.57178430003114,176.57178430003114,176.57178430003114,176.57178430003114,177.57148810010403,177.57148810010403,178.10813720000442,v,1,0.5295034000882879,None,,,,,1,001,2024-10-17_14h37.53.176,Motor Learning Sequence Task,2024.2.1post4,61.11938940687298,2024-10-17 14h40.35.793676 +0530,
50,c,66,2,16,c,1,0.6870312000392005,None,16,2,66,2,,,,,178.12133350002114,,178.10854850010946,178.12133350002114,179.1214221001137,179.1214221001137,179.1214221001137,179.1214221001137,179.1214221001137,180.12115890008863,180.12115890008863,180.81012580008246,c,1,0.6870312000392005,None,,,,,1,001,2024-10-17_14h37.53.176,Motor Learning Sequence Task,2024.2.1post4,61.11938940687298,2024-10-17 14h40.35.793676 +0530,
-150,z,67,3,16,z,1,0.638710799976252,None,16,3,67,3,,,,,180.82148590008728,,180.81068650004454,180.82148590008728,181.82130690000486,181.82130690000486,181.82130690000486,181.82130690000486,181.82130690000486,182.82065590005368,182.82065590005368,183.47543410002254,z,1,0.638710799976252,None,,,,,1,001,2024-10-17_14h37.53.176,Motor Learning Sequence Task,2024.2.1post4,61.11938940687298,2024-10-17 14h40.35.793676 +0530,
-50,x,68,0,17,x,1,0.5098929000087082,None,17,0,68,0,,,,,183.48758280009497,,183.47578810004052,183.48758280009497,184.48783510003705,184.48783510003705,184.48783510003705,184.48783510003705,184.48783510003705,185.48770310007967,185.48770310007967,186.0077455000719,x,1,0.5098929000087082,None,,,,,1,001,2024-10-17_14h37.53.176,Motor Learning Sequence Task,2024.2.1post4,61.11938940687298,2024-10-17 14h40.35.793676 +0530,
150,v,69,1,17,v,1,0.6324352000374347,None,17,1,69,1,,,,,186.0210583000444,,186.0080997000914,186.0210583000444,187.02141410007607,187.02141410007607,187.02141410007607,187.02141410007607,187.02141410007607,188.02111710002646,188.02111710002646,188.65943510003854,v,1,0.6324352000374347,None,,,,,1,001,2024-10-17_14h37.53.176,Motor Learning Sequence Task,2024.2.1post4,61.11938940687298,2024-10-17 14h40.35.793676 +0530,
50,c,70,2,17,c,1,0.6640408999519423,None,17,2,70,2,,,,,188.6708502001129,,188.6598352000583,188.6708502001129,189.67081250005867,189.67081250005867,189.67081250005867,189.67081250005867,189.67081250005867,190.67141560011078,190.67141560011078,191.3425035000546,c,1,0.6640408999519423,None,,,,,1,001,2024-10-17_14h37.53.176,Motor Learning Sequence Task,2024.2.1post4,61.11938940687298,2024-10-17 14h40.35.793676 +0530,
-150,z,71,3,17,z,1,0.5292562999529764,None,17,3,71,3,,,,,191.35393260000274,,191.3428629001137,191.35393260000274,192.35387920006178,192.35387920006178,192.35387920006178,192.35387920006178,192.35387920006178,193.35448370000813,193.35448370000813,193.89096670004074,z,1,0.5292562999529764,None,,,,,1,001,2024-10-17_14h37.53.176,Motor Learning Sequence Task,2024.2.1post4,61.11938940687298,2024-10-17 14h40.35.793676 +0530,
-50,x,72,0,18,x,1,0.6861585000297055,None,18,0,72,0,,,,,193.90398170007393,,193.89137320010923,193.90398170007393,194.90457340003923,194.90457340003923,194.90457340003923,194.90457340003923,194.90457340003923,195.90402020001784,195.90402020001784,196.59197170007974,x,1,0.6861585000297055,None,,,,,1,001,2024-10-17_14h37.53.176,Motor Learning Sequence Task,2024.2.1post4,61.11938940687298,2024-10-17 14h40.35.793676 +0530,
150,v,73,1,18,v,1,0.8483690000139177,None,18,1,73,1,,,,,196.6042339000851,,196.59236160002183,196.6042339000851,197.60423140006606,197.60423140006606,197.60423140006606,197.60423140006606,197.60423140006606,198.60380110004917,198.60380110004917,199.45875300001353,v,1,0.8483690000139177,None,,,,,1,001,2024-10-17_14h37.53.176,Motor Learning Sequence Task,2024.2.1post4,61.11938940687298,2024-10-17 14h40.35.793676 +0530,
50,c,74,2,18,c,1,0.6879529999569058,None,18,2,74,2,,,,,199.4710724001052,,199.45914910000283,199.4710724001052,200.47158830007538,200.47158830007538,200.47158830007538,200.47158830007538,200.47158830007538,201.4709060000023,201.4709060000023,202.17436340008862,c,1,0.6879529999569058,None,,,,,1,001,2024-10-17_14h37.53.176,Motor Learning Sequence Task,2024.2.1post4,61.11938940687298,2024-10-17 14h40.35.793676 +0530,
-150,z,75,3,18,z,1,0.7325289000291377,None,18,3,75,3,,,,,202.18725870002527,,202.174688900006,202.18725870002527,203.18779140000697,203.18779140000697,203.18779140000697,203.18779140000697,203.18779140000697,204.18741370004136,204.18741370004136,204.92537580011413,z,1,0.7325289000291377,None,,,,,1,001,2024-10-17_14h37.53.176,Motor Learning Sequence Task,2024.2.1post4,61.11938940687298,2024-10-17 14h40.35.793676 +0530,
-50,x,76,0,19,x,1,0.637671299977228,None,19,0,76,0,,,,,204.93751390010584,,204.92577370000072,204.93751390010584,205.937229400035,205.937229400035,205.937229400035,205.937229400035,205.937229400035,206.9373973000329,206.9373973000329,207.59175170003437,x,1,0.637671299977228,None,,,,,1,001,2024-10-17_14h37.53.176,Motor Learning Sequence Task,2024.2.1post4,61.11938940687298,2024-10-17 14h40.35.793676 +0530,
150,v,77,1,19,v,1,0.45534570002928376,None,19,1,77,1,,,,,207.60380500007886,,207.59215300006326,207.60380500007886,208.6039573000744,208.6039573000744,208.6039573000744,208.6039573000744,208.6039573000744,209.6043617000105,209.6043617000105,210.0744920000434,v,1,0.45534570002928376,None,,,,,1,001,2024-10-17_14h37.53.176,Motor Learning Sequence Task,2024.2.1post4,61.11938940687298,2024-10-17 14h40.35.793676 +0530,
50,c,78,2,19,c,1,0.7685946000274271,None,19,2,78,2,,,,,210.08741890010424,,210.07481390004978,210.08741890010424,211.08743950002827,211.08743950002827,211.08743950002827,211.08743950002827,211.08743950002827,212.0877261001151,212.0877261001151,212.858348900103,c,1,0.7685946000274271,None,,,,,1,001,2024-10-17_14h37.53.176,Motor Learning Sequence Task,2024.2.1post4,61.11938940687298,2024-10-17 14h40.35.793676 +0530,
-150,z,79,3,19,z,1,0.6622221000725403,None,19,3,79,3,,,,,212.87098680005874,,212.8586886000121,212.87098680005874,213.87076430011075,213.87076430011075,213.87076430011075,213.87076430011075,213.87076430011075,214.87077200005297,214.87077200005297,215.5410620000912,z,1,0.6622221000725403,None,,,,,1,001,2024-10-17_14h37.53.176,Motor Learning Sequence Task,2024.2.1post4,61.11938940687298,2024-10-17 14h40.35.793676 +0530,
-50,x,80,0,20,x,1,0.6324971000431105,None,20,0,80,0,,,,,215.5541227000067,,215.5414213000331,215.5541227000067,216.5539856000105,216.5539856000105,216.5539856000105,216.5539856000105,216.5539856000105,217.55423790006898,217.55423790006898,218.191284700064,x,1,0.6324971000431105,None,,,,,1,001,2024-10-17_14h37.53.176,Motor Learning Sequence Task,2024.2.1post4,61.11938940687298,2024-10-17 14h40.35.793676 +0530,
150,v,81,1,20,v,1,0.6239789000246674,None,20,1,81,1,,,,,218.20374060003087,,218.19164910004474,218.20374060003087,219.2038595000049,219.2038595000049,219.2038595000049,219.2038595000049,219.2038595000049,220.20367440010887,220.20367440010887,220.84146230004262,v,1,0.6239789000246674,None,,,,,1,001,2024-10-17_14h37.53.176,Motor Learning Sequence Task,2024.2.1post4,61.11938940687298,2024-10-17 14h40.35.793676 +0530,
50,c,82,2,20,c,1,0.5896609999472275,None,20,2,82,2,,,,,220.8544931000797,,220.84185980004258,220.8544931000797,221.85384620004334,221.85384620004334,221.85384620004334,221.85384620004334,221.85384620004334,222.8541769000003,222.8541769000003,223.45824090007227,c,1,0.5896609999472275,None,,,,,1,001,2024-10-17_14h37.53.176,Motor Learning Sequence Task,2024.2.1post4,61.11938940687298,2024-10-17 14h40.35.793676 +0530,
-150,z,83,3,20,z,1,0.6132925000274554,None,20,3,83,3,,,,,223.4711365000112,,223.45858100010082,223.4711365000112,224.47104690002743,224.47104690002743,224.47104690002743,224.47104690002743,224.47104690002743,225.47071890009101,225.47071890009101,226.09140980010852,z,1,0.6132925000274554,None,,,,,1,001,2024-10-17_14h37.53.176,Motor Learning Sequence Task,2024.2.1post4,61.11938940687298,2024-10-17 14h40.35.793676 +0530,
-50,x,84,0,21,x,1,0.5308211999945343,None,21,0,84,0,,,,,226.10407950007357,,226.09174880001228,226.10407950007357,227.1034926000284,227.1034926000284,227.1034926000284,227.1034926000284,227.1034926000284,228.10385550011415,228.10385550011415,228.64105700002983,x,1,0.5308211999945343,None,,,,,1,001,2024-10-17_14h37.53.176,Motor Learning Sequence Task,2024.2.1post4,61.11938940687298,2024-10-17 14h40.35.793676 +0530,
150,v,85,1,21,v,1,0.5963495000032708,None,21,1,85,1,,,,,228.65452420001384,,228.64139920007437,228.65452420001384,229.65370710007846,229.65370710007846,229.65370710007846,229.65370710007846,229.65370710007846,230.65406450000592,230.65406450000592,231.2580156000331,v,1,0.5963495000032708,None,,,,,1,001,2024-10-17_14h37.53.176,Motor Learning Sequence Task,2024.2.1post4,61.11938940687298,2024-10-17 14h40.35.793676 +0530,
50,c,86,2,21,c,1,0.8408088000724092,None,21,2,86,2,,,,,231.27085450000595,,231.25833910005167,231.27085450000595,232.2708953000838,232.2708953000838,232.2708953000838,232.2708953000838,232.2708953000838,233.27063460007776,233.27063460007776,234.12476750009228,c,1,0.8408088000724092,None,,,,,1,001,2024-10-17_14h37.53.176,Motor Learning Sequence Task,2024.2.1post4,61.11938940687298,2024-10-17 14h40.35.793676 +0530,
-150,z,87,3,21,z,1,0.4943982999539003,None,21,3,87,3,,,,,234.137551400112,,234.12515390000772,234.137551400112,235.13748910010327,235.13748910010327,235.13748910010327,235.13748910010327,235.13748910010327,236.13706540002022,236.13706540002022,236.64073150011245,z,1,0.4943982999539003,None,,,,,1,001,2024-10-17_14h37.53.176,Motor Learning Sequence Task,2024.2.1post4,61.11938940687298,2024-10-17 14h40.35.793676 +0530,
-50,x,88,0,22,x,1,0.552978599909693,None,22,0,88,0,,,,,236.6536656001117,,236.64112650009338,236.6536656001117,237.6536713000387,237.6536713000387,237.6536713000387,237.6536713000387,237.6536713000387,238.65412840002682,238.65412840002682,239.2085409000283,x,1,0.552978599909693,None,,,,,1,001,2024-10-17_14h37.53.176,Motor Learning Sequence Task,2024.2.1post4,61.11938940687298,2024-10-17 14h40.35.793676 +0530,
150,v,89,1,22,v,1,0.5549996999325231,None,22,1,89,1,,,,,239.22042540006805,,239.2088871001033,239.22042540006805,240.22053530008998,240.22053530008998,240.22053530008998,240.22053530008998,240.22053530008998,241.22025440004654,241.22025440004654,241.79081110004336,v,1,0.5549996999325231,None,,,,,1,001,2024-10-17_14h37.53.176,Motor Learning Sequence Task,2024.2.1post4,61.11938940687298,2024-10-17 14h40.35.793676 +0530,
50,c,90,2,22,c,1,0.7137706999201328,None,22,2,90,2,,,,,241.80333690007683,,241.791205800022,241.80333690007683,242.80358060006984,242.80358060006984,242.80358060006984,242.80358060006984,242.80358060006984,243.80346770002507,243.80346770002507,244.5249423000496,c,1,0.7137706999201328,None,,,,,1,001,2024-10-17_14h37.53.176,Motor Learning Sequence Task,2024.2.1post4,61.11938940687298,2024-10-17 14h40.35.793676 +0530,
-150,z,91,3,22,z,1,0.5742745000170544,None,22,3,91,3,,,,,244.53735550004058,,244.52537810010836,244.53735550004058,245.53715550003108,245.53715550003108,245.53715550003108,245.53715550003108,245.53715550003108,246.536648600013,246.536648600013,247.12371120008174,z,1,0.5742745000170544,None,,,,,1,001,2024-10-17_14h37.53.176,Motor Learning Sequence Task,2024.2.1post4,61.11938940687298,2024-10-17 14h40.35.793676 +0530,
-50,x,92,0,23,x,1,0.5906118999700993,None,23,0,92,0,,,,,247.13692900002934,,247.12407880008686,247.13692900002934,248.13731500005815,248.13731500005815,248.13731500005815,248.13731500005815,248.13731500005815,249.1367379000876,249.1367379000876,249.74069550004788,x,1,0.5906118999700993,None,,,,,1,001,2024-10-17_14h37.53.176,Motor Learning Sequence Task,2024.2.1post4,61.11938940687298,2024-10-17 14h40.35.793676 +0530,
150,v,93,1,23,v,1,0.4236379999201745,None,23,1,93,1,,,,,249.75334110006224,,249.74103710008785,249.75334110006224,250.75389940000605,250.75389940000605,250.75389940000605,250.75389940000605,250.75389940000605,251.75343130005058,251.75343130005058,252.19110700010788,v,1,0.4236379999201745,None,,,,,1,001,2024-10-17_14h37.53.176,Motor Learning Sequence Task,2024.2.1post4,61.11938940687298,2024-10-17 14h40.35.793676 +0530,
50,c,94,2,23,c,1,0.6378037000540644,None,23,2,94,2,,,,,252.20330190006644,,252.19143510004506,252.20330190006644,253.20318440010305,253.20318440010305,253.20318440010305,253.20318440010305,253.20318440010305,254.20353960001376,254.20353960001376,254.85753060004208,c,1,0.6378037000540644,None,,,,,1,001,2024-10-17_14h37.53.176,Motor Learning Sequence Task,2024.2.1post4,61.11938940687298,2024-10-17 14h40.35.793676 +0530,
-150,z,95,3,23,z,1,0.536365200066939,None,23,3,95,3,,,,,254.870172200026,,254.85792370000854,254.870172200026,255.8703385000117,255.8703385000117,255.8703385000117,255.8703385000117,255.8703385000117,256.8704679000657,256.8704679000657,257.4238758001011,z,1,0.536365200066939,None,,,,,1,001,2024-10-17_14h37.53.176,Motor Learning Sequence Task,2024.2.1post4,61.11938940687298,2024-10-17 14h40.35.793676 +0530,
-50,x,96,0,24,x,1,0.516037099994719,None,24,0,96,0,,,,,257.4368032000493,,257.4242506000446,257.4368032000493,258.43704630003776,258.43704630003776,258.43704630003776,258.43704630003776,258.43704630003776,259.4370020000497,259.4370020000497,259.9571500000311,x,1,0.516037099994719,None,,,,,1,001,2024-10-17_14h37.53.176,Motor Learning Sequence Task,2024.2.1post4,61.11938940687298,2024-10-17 14h40.35.793676 +0530,
150,v,97,1,24,v,1,0.5252491000574082,None,24,1,97,1,,,,,259.97005620005075,,259.9574779000832,259.97005620005075,260.9699974000687,260.9699974000687,260.9699974000687,260.9699974000687,260.9699974000687,261.9704610001063,261.9704610001063,262.5067391000921,v,1,0.5252491000574082,None,,,,,1,001,2024-10-17_14h37.53.176,Motor Learning Sequence Task,2024.2.1post4,61.11938940687298,2024-10-17 14h40.35.793676 +0530,
50,c,98,2,24,c,1,0.6223406000062823,None,24,2,98,2,,,,,262.5203243000433,,262.5071458000457,262.5203243000433,263.5202611000277,263.5202611000277,263.5202611000277,263.5202611000277,263.5202611000277,264.5204335000599,264.5204335000599,265.1567059000954,c,1,0.6223406000062823,None,,,,,1,001,2024-10-17_14h37.53.176,Motor Learning Sequence Task,2024.2.1post4,61.11938940687298,2024-10-17 14h40.35.793676 +0530,
-150,z,99,3,24,z,1,0.4559454000554979,None,24,3,99,3,,,,,265.1697371000191,,265.157095600036,265.1697371000191,266.17002450011205,266.17002450011205,266.17002450011205,266.17002450011205,266.17002450011205,267.1702688001096,267.1702688001096,267.6407174000051,z,1,0.4559454000554979,None,,,,,1,001,2024-10-17_14h37.53.176,Motor Learning Sequence Task,2024.2.1post4,61.11938940687298,2024-10-17 14h40.35.793676 +0530,
-50,x,100,0,25,x,1,0.541626000078395,None,25,0,100,0,,,,,267.65359870006796,,267.6411200000439,267.65359870006796,268.6533513000468,268.6533513000468,268.6533513000468,268.6533513000468,268.6533513000468,269.6530583000276,269.6530583000276,270.2080514000263,x,1,0.541626000078395,None,,,,,1,001,2024-10-17_14h37.53.176,Motor Learning Sequence Task,2024.2.1post4,61.11938940687298,2024-10-17 14h40.35.793676 +0530,
150,v,101,1,25,v,1,0.5165840999688953,None,25,1,101,1,,,,,270.2204061000375,,270.2084537000628,270.2204061000375,271.2203779000556,271.2203779000556,271.2203779000556,271.2203779000556,271.2203779000556,272.2198529000161,272.2198529000161,272.7408160000341,v,1,0.5165840999688953,None,,,,,1,001,2024-10-17_14h37.53.176,Motor Learning Sequence Task,2024.2.1post4,61.11938940687298,2024-10-17 14h40.35.793676 +0530,
50,c,102,2,25,c,1,0.9596923000644892,None,25,2,102,2,,,,,272.75364250002895,,272.74114110006485,272.75364250002895,273.7534062000923,273.7534062000923,273.7534062000923,273.7534062000923,273.7534062000923,274.75371520000044,274.75371520000044,275.72383830009494,c,1,0.9596923000644892,None,,,,,1,001,2024-10-17_14h37.53.176,Motor Learning Sequence Task,2024.2.1post4,61.11938940687298,2024-10-17 14h40.35.793676 +0530,
-150,z,103,3,25,z,1,0.4227180000161752,None,25,3,103,3,,,,,275.73701490007807,,275.7243677000515,275.73701490007807,276.73654220008757,276.73654220008757,276.73654220008757,276.73654220008757,276.73654220008757,277.7365424000891,277.7365424000891,278.1738608001033,z,1,0.4227180000161752,None,,,,,1,001,2024-10-17_14h37.53.176,Motor Learning Sequence Task,2024.2.1post4,61.11938940687298,2024-10-17 14h40.35.793676 +0530,
-50,x,104,0,26,x,1,0.6978563000448048,None,26,0,104,0,,,,,278.18673040007707,,278.1742635000264,278.18673040007707,279.1866743999999,279.1866743999999,279.1866743999999,279.1866743999999,279.1866743999999,280.1865851000184,280.1865851000184,280.8904115000041,x,1,0.6978563000448048,None,,,,,1,001,2024-10-17_14h37.53.176,Motor Learning Sequence Task,2024.2.1post4,61.11938940687298,2024-10-17 14h40.35.793676 +0530,
150,v,105,1,26,v,1,0.721998400054872,None,26,1,105,1,,,,,280.9034998000134,,280.8908040000824,280.9034998000134,281.90321060002316,281.90321060002316,281.90321060002316,281.90321060002316,281.90321060002316,282.9031435000943,282.9031435000943,283.64108410000335,v,1,0.721998400054872,None,,,,,1,001,2024-10-17_14h37.53.176,Motor Learning Sequence Task,2024.2.1post4,61.11938940687298,2024-10-17 14h40.35.793676 +0530,
50,c,106,2,26,c,1,0.6577524999156594,None,26,2,106,2,,,,,283.65382850007154,,283.64147480006795,283.65382850007154,284.6530147000449,284.6530147000449,284.6530147000449,284.6530147000449,284.6530147000449,285.6533080000663,285.6533080000663,286.32404810003936,c,1,0.6577524999156594,None,,,,,1,001,2024-10-17_14h37.53.176,Motor Learning Sequence Task,2024.2.1post4,61.11938940687298,2024-10-17 14h40.35.793676 +0530,
-150,z,107,3,26,z,1,0.5834995000623167,None,26,3,107,3,,,,,286.33643020002637,,286.3244420000119,286.33643020002637,287.33676040009595,287.33676040009595,287.33676040009595,287.33676040009595,287.33676040009595,288.33697720000055,288.33697720000055,288.92404890002217,z,1,0.5834995000623167,None,,,,,1,001,2024-10-17_14h37.53.176,Motor Learning Sequence Task,2024.2.1post4,61.11938940687298,2024-10-17 14h40.35.793676 +0530,
-50,x,108,0,27,x,1,0.7656241999939084,None,27,0,108,0,,,,,288.936563400086,,288.9243945000926,288.936563400086,289.9365168000804,289.9365168000804,289.9365168000804,289.9365168000804,289.9365168000804,290.93621740001254,290.93621740001254,291.7074010000797,x,1,0.7656241999939084,None,,,,,1,001,2024-10-17_14h37.53.176,Motor Learning Sequence Task,2024.2.1post4,61.11938940687298,2024-10-17 14h40.35.793676 +0530,
150,v,109,1,27,v,1,0.5176741000032052,None,27,1,109,1,,,,,291.7191991000436,,291.70794570003636,291.7191991000436,292.71988930006046,292.71988930006046,292.71988930006046,292.71988930006046,292.71988930006046,293.71984200004954,293.71984200004954,294.24062030005734,v,1,0.5176741000032052,None,,,,,1,001,2024-10-17_14h37.53.176,Motor Learning Sequence Task,2024.2.1post4,61.11938940687298,2024-10-17 14h40.35.793676 +0530,
50,c,110,2,27,c,1,0.6749709999421611,None,27,2,110,2,,,,,294.2533037000103,,294.24102590000257,294.2533037000103,295.25304120010696,295.25304120010696,295.25304120010696,295.25304120010696,295.25304120010696,296.2526310000103,296.2526310000103,296.9409727000166,c,1,0.6749709999421611,None,,,,,1,001,2024-10-17_14h37.53.176,Motor Learning Sequence Task,2024.2.1post4,61.11938940687298,2024-10-17 14h40.35.793676 +0530,
-150,z,111,3,27,z,1,0.5399444999638945,None,27,3,111,3,,,,,296.95312950003427,,296.94129960006103,296.95312950003427,297.95339030004106,297.95339030004106,297.95339030004106,297.95339030004106,297.95339030004106,298.9527944000438,298.9527944000438,299.50692010007333,z,1,0.5399444999638945,None,,,,,1,001,2024-10-17_14h37.53.176,Motor Learning Sequence Task,2024.2.1post4,61.11938940687298,2024-10-17 14h40.35.793676 +0530,
-50,x,112,0,28,x,1,0.5833216999890283,None,28,0,112,0,,,,,299.5191866001114,,299.50724630011246,299.5191866001114,300.5194798000157,300.5194798000157,300.5194798000157,300.5194798000157,300.5194798000157,301.51968280004803,301.51968280004803,302.107536500087,x,1,0.5833216999890283,None,,,,,1,001,2024-10-17_14h37.53.176,Motor Learning Sequence Task,2024.2.1post4,61.11938940687298,2024-10-17 14h40.35.793676 +0530,
150,v,113,1,28,v,1,0.8813344000373036,None,28,1,113,1,,,,,302.1199561000103,,302.1080196000403,302.1199561000103,303.1197580000153,303.1197580000153,303.1197580000153,303.1197580000153,303.1197580000153,304.1192804001039,304.1192804001039,305.00643649999984,v,1,0.8813344000373036,None,,,,,1,001,2024-10-17_14h37.53.176,Motor Learning Sequence Task,2024.2.1post4,61.11938940687298,2024-10-17 14h40.35.793676 +0530,
50,c,114,2,28,c,1,0.6687272000126541,None,28,2,114,2,,,,,305.0196048000362,,305.0068503000075,305.0196048000362,306.0198451000033,306.0198451000033,306.0198451000033,306.0198451000033,306.0198451000033,307.01943410001695,307.01943410001695,307.69028660003096,c,1,0.6687272000126541,None,,,,,1,001,2024-10-17_14h37.53.176,Motor Learning Sequence Task,2024.2.1post4,61.11938940687298,2024-10-17 14h40.35.793676 +0530,
-150,z,115,3,28,z,1,0.8161651999689639,None,28,3,115,3,,,,,307.7027253000997,,307.69061700010207,307.7027253000997,308.70279580005445,308.70279580005445,308.70279580005445,308.70279580005445,308.70279580005445,309.7027323000366,309.7027323000366,310.523911000113,z,1,0.8161651999689639,None,,,,,1,001,2024-10-17_14h37.53.176,Motor Learning Sequence Task,2024.2.1post4,61.11938940687298,2024-10-17 14h40.35.793676 +0530,
-50,x,116,0,29,x,1,0.9580831000348553,None,29,0,116,0,,,,,310.53586640011054,,310.5243433000287,310.53586640011054,311.5364641000051,311.5364641000051,311.5364641000051,311.5364641000051,311.5364641000051,312.5364005001029,312.5364005001029,313.5066997000249,x,1,0.9580831000348553,None,,,,,1,001,2024-10-17_14h37.53.176,Motor Learning Sequence Task,2024.2.1post4,61.11938940687298,2024-10-17 14h40.35.793676 +0530,
150,v,117,1,29,v,1,0.6429825000232086,None,29,1,117,1,,,,,313.5192104000598,,313.507033700007,313.5192104000598,314.51915780000854,314.51915780000854,314.51915780000854,314.51915780000854,314.51915780000854,315.5200544000836,315.5200544000836,316.17291240009945,v,1,0.6429825000232086,None,,,,,1,001,2024-10-17_14h37.53.176,Motor Learning Sequence Task,2024.2.1post4,61.11938940687298,2024-10-17 14h40.35.793676 +0530,
50,c,118,2,29,c,1,1.0070686999242753,None,29,2,118,2,,,,,316.18578510009684,,316.1732812001137,316.18578510009684,317.185698300018,317.185698300018,317.185698300018,317.185698300018,317.185698300018,318.1859360000817,318.1859360000817,319.20714650000446,c,1,1.0070686999242753,None,,,,,1,001,2024-10-17_14h37.53.176,Motor Learning Sequence Task,2024.2.1post4,61.11938940687298,2024-10-17 14h40.35.793676 +0530,
-150,z,119,3,29,z,1,0.5823779000202194,None,29,3,119,3,,,,,319.21948540001176,,319.20755790011026,319.21948540001176,320.21910430002026,320.21910430002026,320.21910430002026,320.21910430002026,320.21910430002026,321.21951110009104,321.21951110009104,321.8061682000989,z,1,0.5823779000202194,None,,,,,1,001,2024-10-17_14h37.53.176,Motor Learning Sequence Task,2024.2.1post4,61.11938940687298,2024-10-17 14h40.35.793676 +0530,
-50,x,120,0,30,x,1,0.6630781999556348,None,30,0,120,0,,,,,321.81950080010574,,321.80650030006655,321.81950080010574,322.8192660000641,322.8192660000641,322.8192660000641,322.8192660000641,322.8192660000641,323.8195405000588,323.8195405000588,324.49066120001953,x,1,0.6630781999556348,None,,,,,1,001,2024-10-17_14h37.53.176,Motor Learning Sequence Task,2024.2.1post4,61.11938940687298,2024-10-17 14h40.35.793676 +0530,
150,v,121,1,30,v,1,0.5500339000718668,None,30,1,121,1,,,,,324.5029084000271,,324.49098820006475,324.5029084000271,325.5026849000715,325.5026849000715,325.5026849000715,325.5026849000715,325.5026849000715,326.5023446000414,326.5023446000414,327.05668430007063,v,1,0.5500339000718668,None,,,,,1,001,2024-10-17_14h37.53.176,Motor Learning Sequence Task,2024.2.1post4,61.11938940687298,2024-10-17 14h40.35.793676 +0530,
50,c,122,2,30,c,1,0.9495171000016853,None,30,2,122,2,,,,,327.0689746000571,,327.0570849000942,327.0689746000571,328.06956080009695,328.06956080009695,328.06956080009695,328.06956080009695,328.06956080009695,329.06957270007115,329.06957270007115,330.0233271000907,c,1,0.9495171000016853,None,,,,,1,001,2024-10-17_14h37.53.176,Motor Learning Sequence Task,2024.2.1post4,61.11938940687298,2024-10-17 14h40.35.793676 +0530,
-150,z,123,3,30,z,1,0.6008831999497488,None,30,3,123,3,,,,,330.0362046000082,,330.0237594000064,330.0362046000082,331.03624410007615,331.03624410007615,331.03624410007615,331.03624410007615,331.03624410007615,332.0360582000576,332.0360582000576,332.640788000077,z,1,0.6008831999497488,None,,,,,1,001,2024-10-17_14h37.53.176,Motor Learning Sequence Task,2024.2.1post4,61.11938940687298,2024-10-17 14h40.35.793676 +0530,
-50,x,124,0,31,x,1,0.8119924999773502,None,31,0,124,0,,,,,332.6522901999997,,332.64126750000287,332.6522901999997,333.65307920007035,333.65307920007035,333.65307920007035,333.65307920007035,333.65307920007035,334.6523681000108,334.6523681000108,335.47247480007354,x,1,0.8119924999773502,None,,,,,1,001,2024-10-17_14h37.53.176,Motor Learning Sequence Task,2024.2.1post4,61.11938940687298,2024-10-17 14h40.35.793676 +0530,
150,v,125,1,31,v,1,0.5303461001021788,None,31,1,125,1,,,,,335.48589180002455,,335.47288640006445,335.48589180002455,336.4860081000952,336.4860081000952,336.4860081000952,336.4860081000952,336.4860081000952,337.4859150000848,337.4859150000848,338.02344960009214,v,1,0.5303461001021788,None,,,,,1,001,2024-10-17_14h37.53.176,Motor Learning Sequence Task,2024.2.1post4,61.11938940687298,2024-10-17 14h40.35.793676 +0530,
50,c,126,2,31,c,1,1.0827310999156907,None,31,2,126,2,,,,,338.0358975001145,,338.0237752000103,338.0358975001145,339.0359435999999,339.0359435999999,339.0359435999999,339.0359435999999,339.0359435999999,340.03579800005537,340.03579800005537,341.1245198000688,c,1,1.0827310999156907,None,,,,,1,001,2024-10-17_14h37.53.176,Motor Learning Sequence Task,2024.2.1post4,61.11938940687298,2024-10-17 14h40.35.793676 +0530,
-150,z,127,3,31,z,1,1.2641193999443203,None,31,3,127,3,,,,,341.1357442000881,,341.12491840007715,341.1357442000881,342.1357832000358,342.1357832000358,342.1357832000358,342.1357832000358,342.1357832000358,343.1360435000388,343.1360435000388,344.40617870003916,z,1,1.2641193999443203,None,,,,,1,001,2024-10-17_14h37.53.176,Motor Learning Sequence Task,2024.2.1post4,61.11938940687298,2024-10-17 14h40.35.793676 +0530,
-50,x,128,0,32,x,1,1.673995599965565,None,32,0,128,0,,,,,344.41923640004825,,344.4065744000254,344.41923640004825,345.41926820005756,345.41926820005756,345.41926820005756,345.41926820005756,345.41926820005756,346.41893910011277,346.41893910011277,348.10651599999983,x,1,1.673995599965565,None,,,,,1,001,2024-10-17_14h37.53.176,Motor Learning Sequence Task,2024.2.1post4,61.11938940687298,2024-10-17 14h40.35.793676 +0530,
150,v,129,1,32,v,1,0.7097528999438509,None,32,1,129,1,,,,,348.1190990000032,,348.106926400098,348.1190990000032,349.11895270005334,349.11895270005334,349.11895270005334,349.11895270005334,349.11895270005334,350.11916870006826,350.11916870006826,350.83925920003094,v,1,0.7097528999438509,None,,,,,1,001,2024-10-17_14h37.53.176,Motor Learning Sequence Task,2024.2.1post4,61.11938940687298,2024-10-17 14h40.35.793676 +0530,
50,c,130,2,32,c,1,0.9239057999802753,None,32,2,130,2,,,,,350.8522396000335,,350.8396585000446,350.8522396000335,351.8526861000573,351.8526861000573,351.8526861000573,351.8526861000573,351.8526861000573,352.8523754000198,352.8523754000198,353.78935660002753,c,1,0.9239057999802753,None,,,,,1,001,2024-10-17_14h37.53.176,Motor Learning Sequence Task,2024.2.1post4,61.11938940687298,2024-10-17 14h40.35.793676 +0530,
-150,z,131,3,32,z,1,1.076757000060752,None,32,3,131,3,,,,,353.80209810007364,,353.7896861000918,353.80209810007364,354.8020084000891,354.8020084000891,354.8020084000891,354.8020084000891,354.8020084000891,355.8023769001011,355.8023769001011,356.88871810003184,z,1,1.076757000060752,None,,,,,1,001,2024-10-17_14h37.53.176,Motor Learning Sequence Task,2024.2.1post4,61.11938940687298,2024-10-17 14h40.35.793676 +0530,
-50,x,132,0,33,x,1,0.8812451999401674,None,33,0,132,0,,,,,356.9021228000056,,356.8891174000455,356.9021228000056,357.9025582000613,357.9025582000613,357.9025582000613,357.9025582000613,357.9025582000613,358.901857900084,358.901857900084,359.78932810004335,x,1,0.8812451999401674,None,,,,,1,001,2024-10-17_14h37.53.176,Motor Learning Sequence Task,2024.2.1post4,61.11938940687298,2024-10-17 14h40.35.793676 +0530,
150,v,133,1,33,v,1,0.5869273000862449,None,33,1,133,1,,,,,359.80233450001106,,359.7897787000984,359.80233450001106,360.80215780006256,360.80215780006256,360.80215780006256,360.80215780006256,360.80215780006256,361.8021911000833,361.8021911000833,362.40630710008554,v,1,0.5869273000862449,None,,,,,1,001,2024-10-17_14h37.53.176,Motor Learning Sequence Task,2024.2.1post4,61.11938940687298,2024-10-17 14h40.35.793676 +0530,
50,c,134,2,33,c,1,0.8345569000812247,None,33,2,134,2,,,,,362.4192018000176,,362.4066466001095,362.4192018000176,363.4189959000796,363.4189959000796,363.4189959000796,363.4189959000796,363.4189959000796,364.41855520009995,364.41855520009995,365.2560588000342,c,1,0.8345569000812247,None,,,,,1,001,2024-10-17_14h37.53.176,Motor Learning Sequence Task,2024.2.1post4,61.11938940687298,2024-10-17 14h40.35.793676 +0530,
-150,z,135,3,33,z,1,0.5520818000659347,None,33,3,135,3,,,,,365.26914270001,,365.25645920005627,365.26914270001,366.26864860008936,366.26864860008936,366.26864860008936,366.26864860008936,366.26864860008936,367.2691711001098,367.2691711001098,367.8228825000115,z,1,0.5520818000659347,None,,,,,1,001,2024-10-17_14h37.53.176,Motor Learning Sequence Task,2024.2.1post4,61.11938940687298,2024-10-17 14h40.35.793676 +0530,
-50,x,136,0,34,x,1,0.969899500021711,None,34,0,136,0,,,,,367.83505640004296,,367.8232811000198,367.83505640004296,368.83509530010633,368.83509530010633,368.83509530010633,368.83509530010633,368.83509530010633,369.83545820007566,369.83545820007566,370.8222538001137,x,1,0.969899500021711,None,,,,,1,001,2024-10-17_14h37.53.176,Motor Learning Sequence Task,2024.2.1post4,61.11938940687298,2024-10-17 14h40.35.793676 +0530,
150,v,137,1,34,v,1,0.5342071000486612,None,34,1,137,1,,,,,370.83473850006703,,370.8225800000364,370.83473850006703,371.83570070005953,371.83570070005953,371.83570070005953,371.83570070005953,371.83570070005953,372.8352462000912,372.8352462000912,373.372388400021,v,1,0.5342071000486612,None,,,,,1,001,2024-10-17_14h37.53.176,Motor Learning Sequence Task,2024.2.1post4,61.11938940687298,2024-10-17 14h40.35.793676 +0530,
50,c,138,2,34,c,1,0.987598399980925,None,34,2,138,2,,,,,373.38565170008224,,373.37271510006394,373.38565170008224,374.3851724000415,374.3851724000415,374.3851724000415,374.3851724000415,374.3851724000415,375.3854802000569,375.3854802000569,376.3894934001146,c,1,0.987598399980925,None,,,,,1,001,2024-10-17_14h37.53.176,Motor Learning Sequence Task,2024.2.1post4,61.11938940687298,2024-10-17 14h40.35.793676 +0530,
-150,z,139,3,34,z,1,0.5056859001051635,None,34,3,139,3,,,,,376.40203830006067,,376.3898910001153,376.40203830006067,377.4020403000759,377.4020403000759,377.4020403000759,377.4020403000759,377.4020403000759,378.4019335000776,378.4019335000776,378.922267200076,z,1,0.5056859001051635,None,,,,,1,001,2024-10-17_14h37.53.176,Motor Learning Sequence Task,2024.2.1post4,61.11938940687298,2024-10-17 14h40.35.793676 +0530,
-50,x,140,0,35,x,1,0.7182281001005322,None,35,0,140,0,,,,,378.9352388000116,,378.9226571000181,378.9352388000116,379.9359780000523,379.9359780000523,379.9359780000523,379.9359780000523,379.9359780000523,380.93517450010404,380.93517450010404,381.6566148001002,x,1,0.7182281001005322,None,,,,,1,001,2024-10-17_14h37.53.176,Motor Learning Sequence Task,2024.2.1post4,61.11938940687298,2024-10-17 14h40.35.793676 +0530,
150,v,141,1,35,v,1,0.6656412999145687,None,35,1,141,1,,,,,381.66916030005086,,381.65704730001744,381.66916030005086,382.6683382000774,382.6683382000774,382.6683382000774,382.6683382000774,382.6683382000774,383.6682024000911,383.6682024000911,384.33994920004625,v,1,0.6656412999145687,None,,,,,1,001,2024-10-17_14h37.53.176,Motor Learning Sequence Task,2024.2.1post4,61.11938940687298,2024-10-17 14h40.35.793676 +0530,
50,c,142,2,35,c,1,0.6339476000284776,None,35,2,142,2,,,,,384.35237740003504,,384.3403899000259,384.35237740003504,385.352186000091,385.352186000091,385.352186000091,385.352186000091,385.352186000091,386.3515025000088,386.3515025000088,386.98896060010884,c,1,0.6339476000284776,None,,,,,1,001,2024-10-17_14h37.53.176,Motor Learning Sequence Task,2024.2.1post4,61.11938940687298,2024-10-17 14h40.35.793676 +0530,
-150,z,143,3,35,z,1,0.5130580000113696,None,35,3,143,3,,,,,387.00169040006585,,386.98935410007834,387.00169040006585,388.002118500066,388.002118500066,388.002118500066,388.002118500066,388.002118500066,389.0022761001019,389.0022761001019,389.522790200077,z,1,0.5130580000113696,None,,,,,1,001,2024-10-17_14h37.53.176,Motor Learning Sequence Task,2024.2.1post4,61.11938940687298,2024-10-17 14h40.35.793676 +0530,
-50,x,144,0,36,x,1,0.7354553000768647,None,36,0,144,0,,,,,389.53505520010367,,389.5233159000054,389.53505520010367,390.53526480006985,390.53526480006985,390.53526480006985,390.53526480006985,390.53526480006985,391.5351467001019,391.5351467001019,392.27275170001667,x,1,0.7354553000768647,None,,,,,1,001,2024-10-17_14h37.53.176,Motor Learning Sequence Task,2024.2.1post4,61.11938940687298,2024-10-17 14h40.35.793676 +0530,
150,v,145,1,36,v,1,0.5308472000760958,None,36,1,145,1,,,,,392.285087000113,,392.2730821000878,392.285087000113,393.28539030009415,393.28539030009415,393.28539030009415,393.28539030009415,393.28539030009415,394.28540320007596,394.28540320007596,394.82230350002646,v,1,0.5308472000760958,None,,,,,1,001,2024-10-17_14h37.53.176,Motor Learning Sequence Task,2024.2.1post4,61.11938940687298,2024-10-17 14h40.35.793676 +0530,
50,c,146,2,36,c,1,0.9832480000331998,None,36,2,146,2,,,,,394.8346778000705,,394.8227021000348,394.8346778000705,395.83457360009197,395.83457360009197,395.83457360009197,395.83457360009197,395.83457360009197,396.83495240006596,396.83495240006596,397.82215060002636,c,1,0.9832480000331998,None,,,,,1,001,2024-10-17_14h37.53.176,Motor Learning Sequence Task,2024.2.1post4,61.11938940687298,2024-10-17 14h40.35.793676 +0530,
-150,z,147,3,36,z,1,0.44781229994259775,None,36,3,147,3,,,,,397.8355632000603,,397.82254880003165,397.8355632000603,398.83474420011044,398.83474420011044,398.83474420011044,398.83474420011044,398.83474420011044,399.835206800024,399.835206800024,400.289025300066,z,1,0.44781229994259775,None,,,,,1,001,2024-10-17_14h37.53.176,Motor Learning Sequence Task,2024.2.1post4,61.11938940687298,2024-10-17 14h40.35.793676 +0530,
-50,x,148,0,37,x,1,0.6322868000715971,None,37,0,148,0,,,,,400.30173590010963,,400.2894156000111,400.30173590010963,401.30177650006954,401.30177650006954,401.30177650006954,401.30177650006954,401.30177650006954,402.3016690000659,402.3016690000659,402.9389484000858,x,1,0.6322868000715971,None,,,,,1,001,2024-10-17_14h37.53.176,Motor Learning Sequence Task,2024.2.1post4,61.11938940687298,2024-10-17 14h40.35.793676 +0530,
150,v,149,1,37,v,1,0.3914106999291107,None,37,1,149,1,,,,,402.9516113001155,,402.93934570008423,402.9516113001155,403.95188820001204,403.95188820001204,403.95188820001204,403.95188820001204,403.95188820001204,404.9513553000288,404.9513553000288,405.3552439000923,v,1,0.3914106999291107,None,,,,,1,001,2024-10-17_14h37.53.176,Motor Learning Sequence Task,2024.2.1post4,61.11938940687298,2024-10-17 14h40.35.793676 +0530,
50,c,150,2,37,c,1,0.8210189000237733,None,37,2,150,2,,,,,405.36806190002244,,405.35557500005234,405.36806190002244,406.36803370004054,406.36803370004054,406.36803370004054,406.36803370004054,406.36803370004054,407.3684072000906,407.3684072000906,408.20552660000976,c,1,0.8210189000237733,None,,,,,1,001,2024-10-17_14h37.53.176,Motor Learning Sequence Task,2024.2.1post4,61.11938940687298,2024-10-17 14h40.35.793676 +0530,
-150,z,151,3,37,z,1,0.47632819996215403,None,37,3,151,3,,,,,408.2183633000823,,408.2059294000501,408.2183633000823,409.2184429001063,409.2184429001063,409.2184429001063,409.2184429001063,409.2184429001063,410.2185262000421,410.2185262000421,410.70527850009967,z,1,0.47632819996215403,None,,,,,1,001,2024-10-17_14h37.53.176,Motor Learning Sequence Task,2024.2.1post4,61.11938940687298,2024-10-17 14h40.35.793676 +0530,
-50,x,152,0,38,x,1,0.5506618999643251,None,38,0,152,0,,,,,410.71820350002963,,410.70567260007374,410.71820350002963,411.71840660006274,411.71840660006274,411.71840660006274,411.71840660006274,411.71840660006274,412.718429200002,412.718429200002,413.2727822000161,x,1,0.5506618999643251,None,,,,,1,001,2024-10-17_14h37.53.176,Motor Learning Sequence Task,2024.2.1post4,61.11938940687298,2024-10-17 14h40.35.793676 +0530,
150,v,153,1,38,v,1,0.559687800006941,None,38,1,153,1,,,,,413.2847985000117,,413.2731045000255,413.2847985000117,414.284492900013,414.284492900013,414.284492900013,414.284492900013,414.284492900013,415.2846510000527,415.2846510000527,415.8554799000267,v,1,0.559687800006941,None,,,,,1,001,2024-10-17_14h37.53.176,Motor Learning Sequence Task,2024.2.1post4,61.11938940687298,2024-10-17 14h40.35.793676 +0530,
50,c,154,2,38,c,1,0.6431667000288144,None,38,2,154,2,,,,,415.86806390003767,,415.855807700078,415.86806390003767,416.86789090000093,416.86789090000093,416.86789090000093,416.86789090000093,416.86789090000093,417.86832110001706,417.86832110001706,418.52157430001535,c,1,0.6431667000288144,None,,,,,1,001,2024-10-17_14h37.53.176,Motor Learning Sequence Task,2024.2.1post4,61.11938940687298,2024-10-17 14h40.35.793676 +0530,
-150,z,155,3,38,z,1,0.5490663000382483,None,38,3,155,3,,,,,418.5346256000921,,418.5219622000586,418.5346256000921,419.53442470007576,419.53442470007576,419.53442470007576,419.53442470007576,419.53442470007576,420.53479420009535,420.53479420009535,421.0889996000333,z,1,0.5490663000382483,None,,,,,1,001,2024-10-17_14h37.53.176,Motor Learning Sequence Task,2024.2.1post4,61.11938940687298,2024-10-17 14h40.35.793676 +0530,
-50,x,156,0,39,x,1,0.5527303999988362,None,39,0,156,0,,,,,421.10180590010714,,421.089389000088,421.10180590010714,422.1009410000406,422.1009410000406,422.1009410000406,422.1009410000406,422.1009410000406,423.10161200002767,423.10161200002767,423.65547340002377,x,1,0.5527303999988362,None,,,,,1,001,2024-10-17_14h37.53.176,Motor Learning Sequence Task,2024.2.1post4,61.11938940687298,2024-10-17 14h40.35.793676 +0530,
150,v,157,1,39,v,1,0.5565234000096098,None,39,1,157,1,,,,,423.66801080002915,,423.65588450001087,423.66801080002915,424.66754280007444,424.66754280007444,424.66754280007444,424.66754280007444,424.66754280007444,425.6679163000081,425.6679163000081,426.2378947000252,v,1,0.5565234000096098,None,,,,,1,001,2024-10-17_14h37.53.176,Motor Learning Sequence Task,2024.2.1post4,61.11938940687298,2024-10-17 14h40.35.793676 +0530,
50,c,158,2,39,c,1,0.9415896000573412,None,39,2,158,2,,,,,426.2511795000173,,426.2382847000845,426.2511795000173,427.2517749000108,427.2517749000108,427.2517749000108,427.2517749000108,427.2517749000108,428.2513547000708,428.2513547000708,429.20473550003953,c,1,0.9415896000573412,None,,,,,1,001,2024-10-17_14h37.53.176,Motor Learning Sequence Task,2024.2.1post4,61.11938940687298,2024-10-17 14h40.35.793676 +0530,
-150,z,159,3,39,z,1,0.561403000028804,None,39,3,159,3,,,,,429.21807570010424,,429.20512490009423,429.21807570010424,430.21788630005904,430.21788630005904,430.21788630005904,430.21788630005904,430.21788630005904,431.21790750010405,431.21790750010405,431.78831440000795,z,1,0.561403000028804,None,,,,,1,001,2024-10-17_14h37.53.176,Motor Learning Sequence Task,2024.2.1post4,61.11938940687298,2024-10-17 14h40.35.793676 +0530,
-50,x,160,0,40,x,1,0.5709521999815479,None,40,0,160,0,,,,,431.8014206000371,,431.7887171000475,431.8014206000371,432.8014540000586,432.8014540000586,432.8014540000586,432.8014540000586,432.8014540000586,433.8013856000034,433.8013856000034,434.388863600092,x,1,0.5709521999815479,None,,,,,1,001,2024-10-17_14h37.53.176,Motor Learning Sequence Task,2024.2.1post4,61.11938940687298,2024-10-17 14h40.35.793676 +0530,
150,v,161,1,40,v,1,0.5363350000698119,None,40,1,161,1,,,,,434.4015000000363,,434.38925550004933,434.4015000000363,435.4010067000054,435.4010067000054,435.4010067000054,435.4010067000054,435.4010067000054,436.40080530010164,436.40080530010164,436.93882980011404,v,1,0.5363350000698119,None,,,,,1,001,2024-10-17_14h37.53.176,Motor Learning Sequence Task,2024.2.1post4,61.11938940687298,2024-10-17 14h40.35.793676 +0530,
50,c,162,2,40,c,1,0.7940286999801174,None,40,2,162,2,,,,,436.9514100000961,,436.9392526000738,436.9514100000961,437.95126280002296,437.95126280002296,437.95126280002296,437.95126280002296,437.95126280002296,438.9510133001022,438.9510133001022,439.75452420010697,c,1,0.7940286999801174,None,,,,,1,001,2024-10-17_14h37.53.176,Motor Learning Sequence Task,2024.2.1post4,61.11938940687298,2024-10-17 14h40.35.793676 +0530,
-150,z,163,3,40,z,1,0.4925826999824494,None,40,3,163,3,,,,,439.76771980000194,,439.75488020002376,439.76771980000194,440.767539100023,440.767539100023,440.767539100023,440.767539100023,440.767539100023,441.7673606000608,441.7673606000608,442.27206410001963,z,1,0.4925826999824494,None,,,,,1,001,2024-10-17_14h37.53.176,Motor Learning Sequence Task,2024.2.1post4,61.11938940687298,2024-10-17 14h40.35.793676 +0530,
-50,x,164,0,41,x,1,0.8421672999393195,None,41,0,164,0,,,,,442.284301900072,,442.2724803000456,442.284301900072,443.2841917000478,443.2841917000478,443.2841917000478,443.2841917000478,443.2841917000478,444.2847625000868,444.2847625000868,445.138088000007,x,1,0.8421672999393195,None,,,,,1,001,2024-10-17_14h37.53.176,Motor Learning Sequence Task,2024.2.1post4,61.11938940687298,2024-10-17 14h40.35.793676 +0530,
150,v,165,1,41,v,1,0.5341267000185326,None,41,1,165,1,,,,,445.15106290008407,,445.13848620001227,445.15106290008407,446.1507886000909,446.1507886000909,446.1507886000909,446.1507886000909,446.1507886000909,447.1514907000819,447.1514907000819,447.68861650000326,v,1,0.5341267000185326,None,,,,,1,001,2024-10-17_14h37.53.176,Motor Learning Sequence Task,2024.2.1post4,61.11938940687298,2024-10-17 14h40.35.793676 +0530,
50,c,166,2,41,c,1,0.5713080000132322,None,41,2,166,2,,,,,447.70069440000225,,447.6889443000546,447.70069440000225,448.70082040003035,448.70082040003035,448.70082040003035,448.70082040003035,448.70082040003035,449.7007137000328,449.7007137000328,450.2874998000916,c,1,0.5713080000132322,None,,,,,1,001,2024-10-17_14h37.53.176,Motor Learning Sequence Task,2024.2.1post4,61.11938940687298,2024-10-17 14h40.35.793676 +0530,
-150,z,167,3,41,z,1,0.4998843000503257,None,41,3,167,3,,,,,450.30075350007974,,450.2878848001128,450.30075350007974,451.3010641000001,451.3010641000001,451.3010641000001,451.3010641000001,451.3010641000001,452.3008672000142,452.3008672000142,452.8048886000179,z,1,0.4998843000503257,None,,,,,1,001,2024-10-17_14h37.53.176,Motor Learning Sequence Task,2024.2.1post4,61.11938940687298,2024-10-17 14h40.35.793676 +0530,
-50,x,168,0,42,x,1,0.6547502999892458,None,42,0,168,0,,,,,452.8178047001129,,452.8054161000764,452.8178047001129,453.8174999000039,453.8174999000039,453.8174999000039,453.8174999000039,453.8174999000039,454.81763170007616,454.81763170007616,455.4875961000798,x,1,0.6547502999892458,None,,,,,1,001,2024-10-17_14h37.53.176,Motor Learning Sequence Task,2024.2.1post4,61.11938940687298,2024-10-17 14h40.35.793676 +0530,
150,v,169,1,42,v,1,0.6448880999814719,None,42,1,169,1,,,,,455.50094760011416,,455.4879912000615,455.50094760011416,456.50082030007616,456.50082030007616,456.50082030007616,456.50082030007616,456.50082030007616,457.5012955000857,457.5012955000857,458.15438760002144,v,1,0.6448880999814719,None,,,,,1,001,2024-10-17_14h37.53.176,Motor Learning Sequence Task,2024.2.1post4,61.11938940687298,2024-10-17 14h40.35.793676 +0530,
50,c,170,2,42,c,1,0.7108832000521943,None,42,2,170,2,,,,,458.16763999999966,,458.15471620007884,458.16763999999966,459.16767370002344,459.16767370002344,459.16767370002344,459.16767370002344,459.16767370002344,460.16756220010575,460.16756220010575,460.8885177000193,c,1,0.7108832000521943,None,,,,,1,001,2024-10-17_14h37.53.176,Motor Learning Sequence Task,2024.2.1post4,61.11938940687298,2024-10-17 14h40.35.793676 +0530,
-150,z,171,3,42,z,1,0.6378851999761537,None,42,3,171,3,,,,,460.9008752000518,,460.8888504001079,460.9008752000518,461.90125210001133,461.90125210001133,461.90125210001133,461.90125210001133,461.90125210001133,462.9005837000441,462.9005837000441,463.55496140010655,z,1,0.6378851999761537,None,,,,,1,001,2024-10-17_14h37.53.176,Motor Learning Sequence Task,2024.2.1post4,61.11938940687298,2024-10-17 14h40.35.793676 +0530,
-50,x,172,0,43,x,1,0.671334799961187,None,43,0,172,0,,,,,463.5673335000174,,463.5553695000708,463.5673335000174,464.5672541001113,464.5672541001113,464.5672541001113,464.5672541001113,464.5672541001113,465.5679897000082,465.5679897000082,466.25475530000404,x,1,0.671334799961187,None,,,,,1,001,2024-10-17_14h37.53.176,Motor Learning Sequence Task,2024.2.1post4,61.11938940687298,2024-10-17 14h40.35.793676 +0530,
150,v,173,1,43,v,1,0.5005075000226498,None,43,1,173,1,,,,,466.26726310001686,,466.2551538000116,466.26726310001686,467.2672152000014,467.2672152000014,467.2672152000014,467.2672152000014,467.2672152000014,468.2674092000816,468.2674092000816,468.77093910006806,v,1,0.5005075000226498,None,,,,,1,001,2024-10-17_14h37.53.176,Motor Learning Sequence Task,2024.2.1post4,61.11938940687298,2024-10-17 14h40.35.793676 +0530,
50,c,174,2,43,c,1,0.856601900071837,None,43,2,174,2,,,,,468.7839146000333,,468.7712745000608,468.7839146000333,469.78440950007644,469.78440950007644,469.78440950007644,469.78440950007644,469.78440950007644,470.78392380010337,470.78392380010337,471.65520720009226,c,1,0.856601900071837,None,,,,,1,001,2024-10-17_14h37.53.176,Motor Learning Sequence Task,2024.2.1post4,61.11938940687298,2024-10-17 14h40.35.793676 +0530,
-150,z,175,3,43,z,1,0.5373555000405759,None,43,3,175,3,,,,,471.66785890003666,,471.655602700077,471.66785890003666,472.66792860010173,472.66792860010173,472.66792860010173,472.66792860010173,472.66792860010173,473.6672647000523,473.6672647000523,474.220724600018,z,1,0.5373555000405759,None,,,,,1,001,2024-10-17_14h37.53.176,Motor Learning Sequence Task,2024.2.1post4,61.11938940687298,2024-10-17 14h40.35.793676 +0530,
-50,x,176,0,44,x,1,0.6062865999992937,None,44,0,176,0,,,,,474.2338064000942,,474.22111490007956,474.2338064000942,475.2342617000686,475.2342617000686,475.2342617000686,475.2342617000686,475.2342617000686,476.2342700000154,476.2342700000154,476.85494830005337,x,1,0.6062865999992937,None,,,,,1,001,2024-10-17_14h37.53.176,Motor Learning Sequence Task,2024.2.1post4,61.11938940687298,2024-10-17 14h40.35.793676 +0530,
150,v,177,1,44,v,1,0.5993781000142917,None,44,1,177,1,,,,,476.8676876000827,,476.8553386001149,476.8676876000827,477.8676023000153,477.8676023000153,477.8676023000153,477.8676023000153,477.8676023000153,478.86707100004423,478.86707100004423,479.4716030000709,v,1,0.5993781000142917,None,,,,,1,001,2024-10-17_14h37.53.176,Motor Learning Sequence Task,2024.2.1post4,61.11938940687298,2024-10-17 14h40.35.793676 +0530,
50,c,178,2,44,c,1,1.0757829999784008,None,44,2,178,2,,,,,479.4839070000453,,479.4719323000172,479.4839070000453,480.4842563000275,480.4842563000275,480.4842563000275,480.4842563000275,480.4842563000275,481.48371890001,481.48371890001,482.5712675000541,c,1,1.0757829999784008,None,,,,,1,001,2024-10-17_14h37.53.176,Motor Learning Sequence Task,2024.2.1post4,61.11938940687298,2024-10-17 14h40.35.793676 +0530,
-150,z,179,3,44,z,1,0.6003912999294698,None,44,3,179,3,,,,,482.5835350000998,,482.5716797000496,482.5835350000998,483.5837617000798,483.5837617000798,483.5837617000798,483.5837617000798,483.5837617000798,484.5841580000706,484.5841580000706,485.18742850003764,z,1,0.6003912999294698,None,,,,,1,001,2024-10-17_14h37.53.176,Motor Learning Sequence Task,2024.2.1post4,61.11938940687298,2024-10-17 14h40.35.793676 +0530,
-50,x,180,0,45,x,1,0.6506808999693021,None,45,0,180,0,,,,,485.20061320008244,,485.18775630008895,485.20061320008244,486.200811500079,486.200811500079,486.200811500079,486.200811500079,486.200811500079,487.20023520011455,487.20023520011455,487.85455200006254,x,1,0.6506808999693021,None,,,,,1,001,2024-10-17_14h37.53.176,Motor Learning Sequence Task,2024.2.1post4,61.11938940687298,2024-10-17 14h40.35.793676 +0530,
150,v,181,1,45,v,1,0.5350267000030726,None,45,1,181,1,,,,,487.86742800008506,,487.85487880010623,487.86742800008506,488.8669138000114,488.8669138000114,488.8669138000114,488.8669138000114,488.8669138000114,489.8667500000447,489.8667500000447,490.4048593000043,v,1,0.5350267000030726,None,,,,,1,001,2024-10-17_14h37.53.176,Motor Learning Sequence Task,2024.2.1post4,61.11938940687298,2024-10-17 14h40.35.793676 +0530,
50,c,182,2,45,c,1,0.7033301999326795,None,45,2,182,2,,,,,490.4168459000066,,490.4052917000372,490.4168459000066,491.41681500000414,491.41681500000414,491.41681500000414,491.41681500000414,491.41681500000414,492.41776120010763,492.41776120010763,493.1380186000606,c,1,0.7033301999326795,None,,,,,1,001,2024-10-17_14h37.53.176,Motor Learning Sequence Task,2024.2.1post4,61.11938940687298,2024-10-17 14h40.35.793676 +0530,
-150,z,183,3,45,z,1,0.6608577999286354,None,45,3,183,3,,,,,493.15065390011296,,493.13840990001336,493.15065390011296,494.1500411001034,494.1500411001034,494.1500411001034,494.1500411001034,494.1500411001034,495.15046110004187,495.15046110004187,495.82076620007865,z,1,0.6608577999286354,None,,,,,1,001,2024-10-17_14h37.53.176,Motor Learning Sequence Task,2024.2.1post4,61.11938940687298,2024-10-17 14h40.35.793676 +0530,
-50,x,184,0,46,x,1,0.5336562000447884,None,46,0,184,0,,,,,495.833655100083,,495.8211037000874,495.833655100083,496.8335169000784,496.8335169000784,496.8335169000784,496.8335169000784,496.8335169000784,497.8336698000785,497.8336698000785,498.37127370003145,x,1,0.5336562000447884,None,,,,,1,001,2024-10-17_14h37.53.176,Motor Learning Sequence Task,2024.2.1post4,61.11938940687298,2024-10-17 14h40.35.793676 +0530,
150,v,185,1,46,v,1,0.42894080001860857,None,46,1,185,1,,,,,498.3835160000017,,498.37169670010917,498.3835160000017,499.38383620011155,499.38383620011155,499.38383620011155,499.38383620011155,499.38383620011155,500.3839615000179,500.3839615000179,500.8210554000689,v,1,0.42894080001860857,None,,,,,1,001,2024-10-17_14h37.53.176,Motor Learning Sequence Task,2024.2.1post4,61.11938940687298,2024-10-17 14h40.35.793676 +0530,
50,c,186,2,46,c,1,0.7052146000787616,None,46,2,186,2,,,,,500.8335694000125,,500.82145600009244,500.8335694000125,501.834015200031,501.834015200031,501.834015200031,501.834015200031,501.834015200031,502.83345720008947,502.83345720008947,503.5536399000557,c,1,0.7052146000787616,None,,,,,1,001,2024-10-17_14h37.53.176,Motor Learning Sequence Task,2024.2.1post4,61.11938940687298,2024-10-17 14h40.35.793676 +0530,
-150,z,187,3,46,z,1,0.585567899979651,None,46,3,187,3,,,,,503.56656840001233,,503.5540340000298,503.56656840001233,504.5668394000968,504.5668394000968,504.5668394000968,504.5668394000968,504.5668394000968,505.5673201000318,505.5673201000318,506.15441840002313,z,1,0.585567899979651,None,,,,,1,001,2024-10-17_14h37.53.176,Motor Learning Sequence Task,2024.2.1post4,61.11938940687298,2024-10-17 14h40.35.793676 +0530,
-50,x,188,0,47,x,1,0.5508987000212073,None,47,0,188,0,,,,,506.16653580009006,,506.15482410008553,506.16653580009006,507.1665080001112,507.1665080001112,507.1665080001112,507.1665080001112,507.1665080001112,508.1667947000824,508.1667947000824,508.72069159999955,x,1,0.5508987000212073,None,,,,,1,001,2024-10-17_14h37.53.176,Motor Learning Sequence Task,2024.2.1post4,61.11938940687298,2024-10-17 14h40.35.793676 +0530,
150,v,189,1,47,v,1,0.7462601999286562,None,47,1,189,1,,,,,508.7334622000344,,508.721091000014,508.7334622000344,509.73346290003974,509.73346290003974,509.73346290003974,509.73346290003974,509.73346290003974,510.73346370004583,510.73346370004583,511.48718830000143,v,1,0.7462601999286562,None,,,,,1,001,2024-10-17_14h37.53.176,Motor Learning Sequence Task,2024.2.1post4,61.11938940687298,2024-10-17 14h40.35.793676 +0530,
50,c,190,2,47,c,1,0.6350441999966279,None,47,2,190,2,,,,,511.50056340009905,,511.4875827000942,511.50056340009905,512.5001334000845,512.5001334000845,512.5001334000845,512.5001334000845,512.5001334000845,513.500466800062,513.500466800062,514.1377033001045,c,1,0.6350441999966279,None,,,,,1,001,2024-10-17_14h37.53.176,Motor Learning Sequence Task,2024.2.1post4,61.11938940687298,2024-10-17 14h40.35.793676 +0530,
-150,z,191,3,47,z,1,0.480319399968721,None,47,3,191,3,,,,,514.1506139000412,,514.1380815000739,514.1506139000412,515.1505879000761,515.1505879000761,515.1505879000761,515.1505879000761,515.1505879000761,516.1497924000723,516.1497924000723,516.6370606001001,z,1,0.480319399968721,None,,,,,1,001,2024-10-17_14h37.53.176,Motor Learning Sequence Task,2024.2.1post4,61.11938940687298,2024-10-17 14h40.35.793676 +0530,
-50,x,192,0,48,x,1,0.9871323999250308,None,48,0,192,0,,,,,516.6504166000523,,516.6374525000574,516.6504166000523,517.6502690000925,517.6502690000925,517.6502690000925,517.6502690000925,517.6502690000925,518.6504048000788,518.6504048000788,519.6543885000283,x,1,0.9871323999250308,None,,,,,1,001,2024-10-17_14h37.53.176,Motor Learning Sequence Task,2024.2.1post4,61.11938940687298,2024-10-17 14h40.35.793676 +0530,
150,v,193,1,48,v,1,0.33836349996272475,None,48,1,193,1,,,,,519.6670665000565,,519.6547911000671,519.6670665000565,520.6663004000438,520.6663004000438,520.6663004000438,520.6663004000438,520.6663004000438,521.667121800012,521.667121800012,522.0202809000621,v,1,0.33836349996272475,None,,,,,1,001,2024-10-17_14h37.53.176,Motor Learning Sequence Task,2024.2.1post4,61.11938940687298,2024-10-17 14h40.35.793676 +0530,
50,c,194,2,48,c,1,0.7554327000398189,None,48,2,194,2,,,,,522.0337399001,,522.0206754000392,522.0337399001,523.0339611000381,523.0339611000381,523.0339611000381,523.0339611000381,523.0339611000381,524.0334158000769,524.0334158000769,524.8032981000142,c,1,0.7554327000398189,None,,,,,1,001,2024-10-17_14h37.53.176,Motor Learning Sequence Task,2024.2.1post4,61.11938940687298,2024-10-17 14h40.35.793676 +0530,
-150,z,195,3,48,z,1,0.793135300045833,None,48,3,195,3,,,,,524.8166836000746,,524.8036224000389,524.8166836000746,525.8163021000801,525.8163021000801,525.8163021000801,525.8163021000801,525.8163021000801,526.8172346000792,526.8172346000792,527.6198774001095,z,1,0.793135300045833,None,,,,,1,001,2024-10-17_14h37.53.176,Motor Learning Sequence Task,2024.2.1post4,61.11938940687298,2024-10-17 14h40.35.793676 +0530,
-50,x,196,0,49,x,1,0.5707969000795856,None,49,0,196,0,,,,,527.633294200059,,527.6202210000483,527.633294200059,528.6333096000599,528.6333096000599,528.6333096000599,528.6333096000599,528.6333096000599,529.6331487999996,529.6331487999996,530.2204666000325,x,1,0.5707969000795856,None,,,,,1,001,2024-10-17_14h37.53.176,Motor Learning Sequence Task,2024.2.1post4,61.11938940687298,2024-10-17 14h40.35.793676 +0530,
150,v,197,1,49,v,1,0.44470820005517453,None,49,1,197,1,,,,,530.2335425000638,,530.2208669000538,530.2335425000638,531.2329105000244,531.2329105000244,531.2329105000244,531.2329105000244,531.2329105000244,532.2334741000086,532.2334741000086,532.6876280000433,v,1,0.44470820005517453,None,,,,,1,001,2024-10-17_14h37.53.176,Motor Learning Sequence Task,2024.2.1post4,61.11938940687298,2024-10-17 14h40.35.793676 +0530,
50,c,198,2,49,c,1,0.8553419000236318,None,49,2,198,2,,,,,532.6999424000969,,532.6880532000214,532.6999424000969,533.6994356000796,533.6994356000796,533.6994356000796,533.6994356000796,533.6994356000796,534.700223700027,534.700223700027,535.5704651001142,c,1,0.8553419000236318,None,,,,,1,001,2024-10-17_14h37.53.176,Motor Learning Sequence Task,2024.2.1post4,61.11938940687298,2024-10-17 14h40.35.793676 +0530,
-150,z,199,3,49,z,1,0.861333700013347,None,49,3,199,3,,,,,535.583640600089,,535.570877200109,535.583640600089,536.5829815000761,536.5829815000761,536.5829815000761,536.5829815000761,536.5829815000761,537.5830456000986,537.5830456000986,538.4531538001029,z,1,0.861333700013347,None,,,,,1,001,2024-10-17_14h37.53.176,Motor Learning Sequence Task,2024.2.1post4,61.11938940687298,2024-10-17 14h40.35.793676 +0530,
50,c,0,0,0,c,1,0.5516485000262037,None,,,,,0,0,0,2,538.4820584000554,,538.4660801000427,538.4820584000554,539.4661789000966,539.4661789000966,539.4661789000966,539.4661789000966,539.4830797000322,540.466619300074,540.466619300074,541.0204306000378,,,,,c,1,0.5516485000262037,None,1,001,2024-10-17_14h37.53.176,Motor Learning Sequence Task,2024.2.1post4,61.11938940687298,2024-10-17 14h40.35.793676 +0530,
50,c,1,1,1,c,1,0.45673080009873956,None,,,,,1,1,1,2,541.0331967000384,,541.0208405000158,541.0331967000384,542.0333194000414,542.0333194000414,542.0333194000414,542.0333194000414,542.0333194000414,543.0333236000733,543.0333236000733,543.5042476000963,,,,,c,1,0.45673080009873956,None,1,001,2024-10-17_14h37.53.176,Motor Learning Sequence Task,2024.2.1post4,61.11938940687298,2024-10-17 14h40.35.793676 +0530,
-50,x,2,2,0,x,1,0.6161976000294089,None,,,,,0,2,2,0,543.5166171001038,,543.5046614001039,543.5166171001038,544.5167324000504,544.5167324000504,544.5167324000504,544.5167324000504,544.5167324000504,545.516413000063,545.516413000063,546.1369476000546,,,,,x,1,0.6161976000294089,None,1,001,2024-10-17_14h37.53.176,Motor Learning Sequence Task,2024.2.1post4,61.11938940687298,2024-10-17 14h40.35.793676 +0530,
-150,z,3,3,0,z,1,0.8551585000241175,None,,,,,0,3,3,3,546.1499035001034,,546.137354800012,546.1499035001034,547.1493416000158,547.1493416000158,547.1493416000158,547.1493416000158,547.1493416000158,548.1495513000991,548.1495513000991,549.0203200000105,,,,,z,1,0.8551585000241175,None,1,001,2024-10-17_14h37.53.176,Motor Learning Sequence Task,2024.2.1post4,61.11938940687298,2024-10-17 14h40.35.793676 +0530,
50,c,4,4,2,c,1,0.5172901999903843,None,,,,,2,4,4,2,549.033556300099,,549.0207350000273,549.033556300099,550.0329019000055,550.0329019000055,550.0329019000055,550.0329019000055,550.0329019000055,551.0333287001122,551.0333287001122,551.5536410000641,,,,,c,1,0.5172901999903843,None,1,001,2024-10-17_14h37.53.176,Motor Learning Sequence Task,2024.2.1post4,61.11938940687298,2024-10-17 14h40.35.793676 +0530,
-50,x,5,5,1,x,1,0.9309744000202045,None,,,,,1,5,5,0,551.5662386000622,,551.5540730000939,551.5662386000622,552.5667526000179,552.5667526000179,552.5667526000179,552.5667526000179,552.5667526000179,553.5661277000327,553.5661277000327,554.5030441000126,,,,,x,1,0.9309744000202045,None,1,001,2024-10-17_14h37.53.176,Motor Learning Sequence Task,2024.2.1post4,61.11938940687298,2024-10-17 14h40.35.793676 +0530,
-150,z,6,6,1,z,1,0.6596898999996483,None,,,,,1,6,6,3,554.5165700000944,,554.5034512000857,554.5165700000944,555.51644580008,555.51644580008,555.51644580008,555.51644580008,555.51644580008,556.5160845000064,556.5160845000064,557.1864732000977,,,,,z,1,0.6596898999996483,None,1,001,2024-10-17_14h37.53.176,Motor Learning Sequence Task,2024.2.1post4,61.11938940687298,2024-10-17 14h40.35.793676 +0530,
-50,x,7,7,2,x,1,0.5795433999737725,None,,,,,2,7,7,0,557.1997089000652,,557.1868839000817,557.1997089000652,558.1994534000987,558.1994534000987,558.1994534000987,558.1994534000987,558.1994534000987,559.1996672000969,559.1996672000969,559.7864048000192,,,,,x,1,0.5795433999737725,None,1,001,2024-10-17_14h37.53.176,Motor Learning Sequence Task,2024.2.1post4,61.11938940687298,2024-10-17 14h40.35.793676 +0530,
-150,z,8,8,2,z,1,0.7148622999666259,None,,,,,2,8,8,3,559.7997994000325,,559.7868272000924,559.7997994000325,560.7995285000652,560.7995285000652,560.7995285000652,560.7995285000652,560.7995285000652,561.8000171000604,561.8000171000604,562.5199391000206,,,,,z,1,0.7148622999666259,None,1,001,2024-10-17_14h37.53.176,Motor Learning Sequence Task,2024.2.1post4,61.11938940687298,2024-10-17 14h40.35.793676 +0530,
150,v,9,9,0,v,1,0.7838653000071645,None,,,,,0,9,9,1,562.5328450000379,,562.5202792000491,562.5328450000379,563.5332216001116,563.5332216001116,563.5332216001116,563.5332216001116,563.5332216001116,564.5334572000429,564.5334572000429,565.3201887001051,,,,,v,1,0.7838653000071645,None,1,001,2024-10-17_14h37.53.176,Motor Learning Sequence Task,2024.2.1post4,61.11938940687298,2024-10-17 14h40.35.793676 +0530,
-50,x,10,10,3,x,1,0.6276796000311151,None,,,,,3,10,10,0,565.3326285000658,,565.3205223000841,565.3326285000658,566.3331890000263,566.3331890000263,566.3331890000263,566.3331890000263,566.3331890000263,567.3333851000061,567.3333851000061,567.9696532000089,,,,,x,1,0.6276796000311151,None,1,001,2024-10-17_14h37.53.176,Motor Learning Sequence Task,2024.2.1post4,61.11938940687298,2024-10-17 14h40.35.793676 +0530,
-150,z,11,11,3,z,1,0.4933073000283912,None,,,,,3,11,11,3,567.9826425000792,,567.970060300082,567.9826425000792,568.9826179000083,568.9826179000083,568.9826179000083,568.9826179000083,568.9826179000083,569.9828124000924,569.9828124000924,570.4862989000976,,,,,z,1,0.4933073000283912,None,1,001,2024-10-17_14h37.53.176,Motor Learning Sequence Task,2024.2.1post4,61.11938940687298,2024-10-17 14h40.35.793676 +0530,
-150,z,12,12,4,z,1,0.48754400003235787,None,,,,,4,12,12,3,570.4991496000439,,570.486641400028,570.4991496000439,571.4990641000913,571.4990641000913,571.4990641000913,571.4990641000913,571.4990641000913,572.4995061000809,572.4995061000809,572.9895080000861,,,,,z,1,0.48754400003235787,None,1,001,2024-10-17_14h37.53.176,Motor Learning Sequence Task,2024.2.1post4,61.11938940687298,2024-10-17 14h40.35.793676 +0530,
150,v,13,13,1,v,1,0.3990682000294328,None,,,,,1,13,13,1,573.0018314000918,,572.9898869000608,573.0018314000918,573.999913000036,573.999913000036,573.999913000036,573.999913000036,574.0158419000218,574.9995500000659,574.9995500000659,575.4032529001124,,,,,v,1,0.3990682000294328,None,1,001,2024-10-17_14h37.53.176,Motor Learning Sequence Task,2024.2.1post4,61.11938940687298,2024-10-17 14h40.35.793676 +0530,
-150,z,14,14,5,z,1,0.4368045999435708,None,,,,,5,14,14,3,575.4155392000685,,575.403663400095,575.4155392000685,576.4163517000852,576.4163517000852,576.4163517000852,576.4163517000852,576.4163517000852,577.4162235000404,577.4162235000404,577.8700287000975,,,,,z,1,0.4368045999435708,None,1,001,2024-10-17_14h37.53.176,Motor Learning Sequence Task,2024.2.1post4,61.11938940687298,2024-10-17 14h40.35.793676 +0530,
150,v,15,15,2,v,1,0.38488480006344616,None,,,,,2,15,15,1,577.883383300039,,577.8704356000526,577.883383300039,578.8828662000597,578.8828662000597,578.8828662000597,578.8828662000597,578.8828662000597,579.8825184000889,579.8825184000889,580.2702620000346,,,,,v,1,0.38488480006344616,None,1,001,2024-10-17_14h37.53.176,Motor Learning Sequence Task,2024.2.1post4,61.11938940687298,2024-10-17 14h40.35.793676 +0530,
-50,x,16,16,4,x,1,0.6053915000520647,None,,,,,4,16,16,0,580.2828886000207,,580.2706616000505,580.2828886000207,581.2826535000931,581.2826535000931,581.2826535000931,581.2826535000931,581.2826535000931,582.2826701001031,582.2826701001031,582.9024915000191,,,,,x,1,0.6053915000520647,None,1,001,2024-10-17_14h37.53.176,Motor Learning Sequence Task,2024.2.1post4,61.11938940687298,2024-10-17 14h40.35.793676 +0530,
-50,x,17,17,5,x,1,0.6576681000879034,None,,,,,5,17,17,0,582.9156400000211,,582.9028313000454,582.9156400000211,583.9159181000432,583.9159181000432,583.9159181000432,583.9159181000432,583.9159181000432,584.9156363001093,584.9156363001093,585.5868384001078,,,,,x,1,0.6576681000879034,None,1,001,2024-10-17_14h37.53.176,Motor Learning Sequence Task,2024.2.1post4,61.11938940687298,2024-10-17 14h40.35.793676 +0530,
-150,z,18,18,6,z,1,0.6327035001013428,None,,,,,6,18,18,3,585.5990005000494,,585.587239000015,585.5990005000494,586.5989464001032,586.5989464001032,586.5989464001032,586.5989464001032,586.5989464001032,587.5996770000784,587.5996770000784,588.2359743000707,,,,,z,1,0.6327035001013428,None,1,001,2024-10-17_14h37.53.176,Motor Learning Sequence Task,2024.2.1post4,61.11938940687298,2024-10-17 14h40.35.793676 +0530,
-150,z,19,19,7,z,1,0.4540593000128865,None,,,,,7,19,19,3,588.2491273001069,,588.2363077000482,588.2491273001069,589.2489918000065,589.2489918000065,589.2489918000065,589.2489918000065,589.2489918000065,590.2488033000845,590.2488033000845,590.7195481000235,,,,,z,1,0.4540593000128865,None,1,001,2024-10-17_14h37.53.176,Motor Learning Sequence Task,2024.2.1post4,61.11938940687298,2024-10-17 14h40.35.793676 +0530,
50,c,20,20,3,c,1,0.9323148000985384,None,,,,,3,20,20,2,590.7323152000317,,590.7198802001076,590.7323152000317,591.732623900054,591.732623900054,591.732623900054,591.732623900054,591.732623900054,592.7329020000761,592.7329020000761,593.6698083000956,,,,,c,1,0.9323148000985384,None,1,001,2024-10-17_14h37.53.176,Motor Learning Sequence Task,2024.2.1post4,61.11938940687298,2024-10-17 14h40.35.793676 +0530,
-50,x,21,21,6,x,1,1.1618265999713913,None,,,,,6,21,21,0,593.6826089000097,,593.670140500064,593.6826089000097,594.6827888000989,594.6827888000989,594.6827888000989,594.6827888000989,594.6827888000989,595.6827137001092,595.6827137001092,596.8523040000582,,,,,x,1,1.1618265999713913,None,1,001,2024-10-17_14h37.53.176,Motor Learning Sequence Task,2024.2.1post4,61.11938940687298,2024-10-17 14h40.35.793676 +0530,
-50,x,22,22,7,x,1,0.6145500000566244,None,,,,,7,22,22,0,596.8657042001141,,596.8526374000357,596.8657042001141,597.8661176000023,597.8661176000023,597.8661176000023,597.8661176000023,597.8661176000023,598.8654848000733,598.8654848000733,599.4861606000923,,,,,x,1,0.6145500000566244,None,1,001,2024-10-17_14h37.53.176,Motor Learning Sequence Task,2024.2.1post4,61.11938940687298,2024-10-17 14h40.35.793676 +0530,
-50,x,23,23,8,x,1,0.48678250005468726,None,,,,,8,23,23,0,599.4987766001141,,599.4865054000402,599.4987766001141,600.4989377000602,600.4989377000602,600.4989377000602,600.4989377000602,600.4989377000602,601.4993516000686,601.4993516000686,602.0026396000758,,,,,x,1,0.48678250005468726,None,1,001,2024-10-17_14h37.53.176,Motor Learning Sequence Task,2024.2.1post4,61.11938940687298,2024-10-17 14h40.35.793676 +0530,
50,c,24,24,4,c,1,1.1762816000264138,None,,,,,4,24,24,2,602.0157593000913,,602.003055700101,602.0157593000913,603.0158650000812,603.0158650000812,603.0158650000812,603.0158650000812,603.0158650000812,604.0153303000843,604.0153303000843,605.2030024001142,,,,,c,1,1.1762816000264138,None,1,001,2024-10-17_14h37.53.176,Motor Learning Sequence Task,2024.2.1post4,61.11938940687298,2024-10-17 14h40.35.793676 +0530,
50,c,25,25,5,c,1,0.5094867999432608,None,,,,,5,25,25,2,605.2157078000018,,605.2035209001042,605.2157078000018,606.215959000052,606.215959000052,606.215959000052,606.215959000052,606.215959000052,607.2154585000826,607.2154585000826,607.736093100044,,,,,c,1,0.5094867999432608,None,1,001,2024-10-17_14h37.53.176,Motor Learning Sequence Task,2024.2.1post4,61.11938940687298,2024-10-17 14h40.35.793676 +0530,
50,c,26,26,6,c,1,0.7375266999006271,None,,,,,6,26,26,2,607.7490140000591,,607.7365022000158,607.7490140000591,608.7494265000569,608.7494265000569,608.7494265000569,608.7494265000569,608.7494265000569,609.7486778000602,609.7486778000602,610.5021006000461,,,,,c,1,0.7375266999006271,None,1,001,2024-10-17_14h37.53.176,Motor Learning Sequence Task,2024.2.1post4,61.11938940687298,2024-10-17 14h40.35.793676 +0530,
-50,x,27,27,9,x,1,0.5871633000206202,None,,,,,9,27,27,0,610.5158207000932,,610.5024324000115,610.5158207000932,611.5154397001024,611.5154397001024,611.5154397001024,611.5154397001024,611.5154397001024,612.5155532000354,612.5155532000354,613.1196801000042,,,,,x,1,0.5871633000206202,None,1,001,2024-10-17_14h37.53.176,Motor Learning Sequence Task,2024.2.1post4,61.11938940687298,2024-10-17 14h40.35.793676 +0530,
-150,z,28,28,8,z,1,0.6855380999622867,None,,,,,8,28,28,3,613.1322760001058,,613.1200134000974,613.1322760001058,614.1323227001121,614.1323227001121,614.1323227001121,614.1323227001121,614.1323227001121,615.1318860000465,615.1318860000465,615.8198487000773,,,,,z,1,0.6855380999622867,None,1,001,2024-10-17_14h37.53.176,Motor Learning Sequence Task,2024.2.1post4,61.11938940687298,2024-10-17 14h40.35.793676 +0530,
-50,x,29,29,10,x,1,0.5343592000426725,None,,,,,10,29,29,0,615.8322171000764,,615.8201836000662,615.8322171000764,616.8322652000934,616.8322652000934,616.8322652000934,616.8322652000934,616.8322652000934,617.8317634001141,617.8317634001141,618.3697914000368,,,,,x,1,0.5343592000426725,None,1,001,2024-10-17_14h37.53.176,Motor Learning Sequence Task,2024.2.1post4,61.11938940687298,2024-10-17 14h40.35.793676 +0530,
-150,z,30,30,9,z,1,0.7102969998959452,None,,,,,9,30,30,3,618.3820597000886,,618.3701345000882,618.3820597000886,619.3820365000283,619.3820365000283,619.3820365000283,619.3820365000283,619.3820365000283,620.3817347000586,620.3817347000586,621.1025110000046,,,,,z,1,0.7102969998959452,None,1,001,2024-10-17_14h37.53.176,Motor Learning Sequence Task,2024.2.1post4,61.11938940687298,2024-10-17 14h40.35.793676 +0530,
150,v,31,31,3,v,1,0.5875255999853835,None,,,,,3,31,31,1,621.1148495000089,,621.1029910000507,621.1148495000089,622.1157772000879,622.1157772000879,622.1157772000879,622.1157772000879,622.1157772000879,623.1156846000813,623.1156846000813,623.7194953000871,,,,,v,1,0.5875255999853835,None,1,001,2024-10-17_14h37.53.176,Motor Learning Sequence Task,2024.2.1post4,61.11938940687298,2024-10-17 14h40.35.793676 +0530,
150,v,32,32,4,v,1,0.5010423000203446,None,,,,,4,32,32,1,623.7315927000018,,623.7198979000095,623.7315927000018,624.7324038000079,624.7324038000079,624.7324038000079,624.7324038000079,624.7324038000079,625.7322612000862,625.7322612000862,626.2363110000733,,,,,v,1,0.5010423000203446,None,1,001,2024-10-17_14h37.53.176,Motor Learning Sequence Task,2024.2.1post4,61.11938940687298,2024-10-17 14h40.35.793676 +0530,
-50,x,33,33,11,x,1,0.6599579999456182,None,,,,,11,33,33,0,626.2483408000553,,626.2366661000997,626.2483408000553,627.2488759000553,627.2488759000553,627.2488759000553,627.2488759000553,627.2488759000553,628.249208800029,628.249208800029,628.9189107000129,,,,,x,1,0.6599579999456182,None,1,001,2024-10-17_14h37.53.176,Motor Learning Sequence Task,2024.2.1post4,61.11938940687298,2024-10-17 14h40.35.793676 +0530,
150,v,34,34,5,v,1,0.5893506999127567,None,,,,,5,34,34,1,628.9319929000922,,628.9193586000474,628.9319929000922,629.9322960000718,629.9322960000718,629.9322960000718,629.9322960000718,629.9322960000718,630.9316502000438,630.9316502000438,631.5358417000389,,,,,v,1,0.5893506999127567,None,1,001,2024-10-17_14h37.53.176,Motor Learning Sequence Task,2024.2.1post4,61.11938940687298,2024-10-17 14h40.35.793676 +0530,
50,c,35,35,7,c,1,0.6161898999707773,None,,,,,7,35,35,2,631.5483372000745,,631.5362481001066,631.5483372000745,632.5486116000684,632.5486116000684,632.5486116000684,632.5486116000684,632.5486116000684,633.5483227000805,633.5483227000805,634.1697807000019,,,,,c,1,0.6161898999707773,None,1,001,2024-10-17_14h37.53.176,Motor Learning Sequence Task,2024.2.1post4,61.11938940687298,2024-10-17 14h40.35.793676 +0530,
-150,z,36,36,10,z,1,0.47253409994300455,None,,,,,10,36,36,3,634.1819599000737,,634.1701160001103,634.1819599000737,635.1823213000316,635.1823213000316,635.1823213000316,635.1823213000316,635.1823213000316,636.1819517000113,636.1819517000113,636.6686916000908,,,,,z,1,0.47253409994300455,None,1,001,2024-10-17_14h37.53.176,Motor Learning Sequence Task,2024.2.1post4,61.11938940687298,2024-10-17 14h40.35.793676 +0530,
-150,z,37,37,11,z,1,0.456683799973689,None,,,,,11,37,37,3,636.6819704000372,,636.6690960000269,636.6819704000372,637.6822485000594,637.6822485000594,637.6822485000594,637.6822485000594,637.6822485000594,638.6815044000978,638.6815044000978,639.152876200038,,,,,z,1,0.456683799973689,None,1,001,2024-10-17_14h37.53.176,Motor Learning Sequence Task,2024.2.1post4,61.11938940687298,2024-10-17 14h40.35.793676 +0530,
